Packet number,Gyroscope X (deg/s),Gyroscope Y(deg/s),Gyroscope Z (deg/s),Accelerometer X (g),Accelerometer Y (g),Accelerometer Z (g),Magnetometer X (G),Magnetometer Y (G),Magnetometer Z (G)
0,-0.00,-0.00,-0.00,-0.05,-0.01,9.84,0,0,0
1,0.00,-0.00,-0.00,0.01,-0.02,9.76,0,0,0
2,0.00,-0.00,-0.00,-0.01,-0.09,9.81,0,0,0
3,0.00,-0.00,-0.00,0.00,-0.00,9.81,0,0,0
4,-0.00,-0.00,-0.00,-0.01,-0.05,9.75,0,0,0
5,0.00,-0.00,-0.00,0.03,-0.02,9.79,0,0,0
6,0.00,-0.00,-0.00,-0.05,-0.02,9.84,0,0,0
7,-0.00,0.00,-0.00,0.01,0.01,9.86,0,0,0
8,0.00,-0.00,-0.00,0.01,0.00,9.82,0,0,0
9,0.00,-0.00,-0.00,-0.05,-0.03,9.73,0,0,0
10,0.00,-0.00,-0.00,-0.02,-0.02,9.81,0,0,0
11,0.00,-0.00,-0.00,0.00,-0.01,9.82,0,0,0
12,0.00,-0.00,-0.00,-0.05,-0.05,9.78,0,0,0
13,-0.00,-0.00,-0.00,-0.01,-0.02,9.75,0,0,0
14,-0.00,-0.00,-0.00,-0.03,-0.02,9.76,0,0,0
15,0.00,-0.00,-0.00,-0.01,-0.01,9.82,0,0,0
16,0.00,-0.00,-0.00,0.00,-0.01,9.78,0,0,0
17,-0.00,-0.00,-0.00,-0.00,-0.06,9.77,0,0,0
18,0.00,-0.00,-0.00,-0.06,-0.05,9.81,0,0,0
19,0.00,-0.00,-0.00,-0.00,0.02,9.74,0,0,0
20,-0.00,-0.00,-0.00,0.02,-0.06,9.71,0,0,0
21,0.00,-0.00,-0.00,0.00,-0.00,9.84,0,0,0
22,0.00,-0.00,-0.00,-0.04,-0.03,9.82,0,0,0
23,-0.00,-0.00,-0.00,-0.02,-0.04,9.84,0,0,0
24,0.00,0.00,-0.00,0.00,-0.03,9.76,0,0,0
25,0.00,-0.00,-0.00,-0.00,-0.06,9.79,0,0,0
26,0.00,-0.00,-0.00,0.00,-0.04,9.74,0,0,0
27,0.00,-0.01,-0.00,-0.06,-0.04,9.73,0,0,0
28,0.00,-0.00,-0.00,-0.07,-0.02,9.75,0,0,0
29,0.00,-0.00,-0.00,-0.06,-0.07,9.87,0,0,0
30,0.00,-0.00,-0.00,-0.03,-0.04,9.75,0,0,0
31,0.00,-0.00,-0.00,-0.03,-0.05,9.83,0,0,0
32,-0.00,-0.00,-0.00,-0.04,-0.02,9.83,0,0,0
33,0.00,-0.00,-0.00,-0.02,-0.01,9.79,0,0,0
34,0.00,-0.00,-0.00,-0.04,-0.01,9.77,0,0,0
35,0.00,-0.00,-0.00,0.00,-0.01,9.76,0,0,0
36,-0.00,-0.01,-0.00,-0.02,-0.03,9.77,0,0,0
37,0.00,-0.00,0.00,0.01,-0.03,9.79,0,0,0
38,0.00,-0.00,-0.00,0.01,-0.09,9.84,0,0,0
39,0.00,-0.00,-0.00,-0.05,-0.05,9.75,0,0,0
40,0.00,0.00,-0.00,-0.02,0.03,9.73,0,0,0
41,0.00,-0.00,-0.00,-0.00,-0.05,9.73,0,0,0
42,0.00,-0.00,-0.00,0.00,-0.06,9.81,0,0,0
43,-0.00,-0.00,-0.00,-0.06,-0.00,9.79,0,0,0
44,-0.00,-0.00,-0.00,-0.04,-0.02,9.84,0,0,0
45,0.00,-0.01,-0.00,-0.03,-0.06,9.76,0,0,0
46,0.00,-0.00,-0.00,-0.01,-0.07,9.79,0,0,0
47,0.00,-0.00,-0.00,-0.04,-0.02,9.83,0,0,0
48,0.00,-0.00,-0.00,0.02,-0.01,9.81,0,0,0
49,0.00,-0.00,-0.00,-0.02,0.02,9.74,0,0,0
50,0.00,-0.00,-0.00,-0.02,-0.02,9.80,0,0,0
51,0.00,-0.00,-0.00,0.00,-0.02,9.73,0,0,0
52,0.00,-0.00,-0.00,-0.02,-0.04,9.85,0,0,0
53,0.00,-0.00,-0.00,0.00,-0.03,9.83,0,0,0
54,0.00,-0.00,-0.01,0.01,-0.01,9.81,0,0,0
55,-0.00,-0.00,-0.00,-0.02,-0.04,9.79,0,0,0
56,0.00,-0.00,-0.00,0.03,-0.03,9.71,0,0,0
57,0.00,-0.00,-0.00,-0.02,0.01,9.86,0,0,0
58,-0.00,-0.00,-0.00,0.04,-0.05,9.75,0,0,0
59,0.00,-0.01,-0.00,0.02,-0.03,9.81,0,0,0
60,-0.00,-0.00,-0.01,-0.01,-0.01,9.84,0,0,0
61,0.00,-0.00,-0.00,-0.02,-0.06,9.76,0,0,0
62,0.00,-0.00,-0.00,0.03,-0.03,9.78,0,0,0
63,0.00,-0.00,-0.00,-0.03,-0.02,9.75,0,0,0
64,0.00,-0.00,-0.00,-0.00,-0.06,9.76,0,0,0
65,0.00,-0.00,-0.00,-0.01,-0.02,9.74,0,0,0
66,0.00,-0.01,-0.00,0.06,-0.02,9.77,0,0,0
67,-0.00,-0.00,-0.00,-0.02,-0.04,9.83,0,0,0
68,0.00,-0.00,-0.00,-0.06,0.00,9.76,0,0,0
69,-0.00,-0.00,-0.00,-0.01,-0.03,9.79,0,0,0
70,0.00,-0.00,-0.00,-0.04,-0.00,9.76,0,0,0
71,0.00,-0.00,-0.00,0.03,-0.02,9.80,0,0,0
72,0.00,-0.00,-0.00,0.01,-0.02,9.81,0,0,0
73,-0.00,-0.00,-0.00,0.01,0.00,9.82,0,0,0
74,0.00,-0.00,-0.00,-0.04,-0.01,9.73,0,0,0
75,0.00,-0.00,-0.00,-0.05,-0.03,9.77,0,0,0
76,0.00,-0.00,-0.00,-0.01,-0.03,9.82,0,0,0
77,-0.00,-0.00,-0.00,0.00,0.01,9.79,0,0,0
78,0.00,-0.00,-0.00,0.00,-0.02,9.81,0,0,0
79,0.00,0.00,-0.00,-0.03,0.00,9.81,0,0,0
80,0.00,-0.00,-0.00,0.00,-0.00,9.81,0,0,0
81,0.00,-0.00,-0.00,0.00,-0.01,9.76,0,0,0
82,0.00,-0.00,-0.00,-0.03,-0.02,9.75,0,0,0
83,0.00,-0.00,-0.00,0.01,-0.03,9.80,0,0,0
84,-0.00,-0.00,-0.00,-0.04,-0.01,9.78,0,0,0
85,0.00,-0.00,0.00,-0.03,-0.02,9.84,0,0,0
86,0.00,-0.00,-0.00,-0.02,-0.00,9.83,0,0,0
87,0.00,-0.00,-0.00,0.00,-0.01,9.73,0,0,0
88,-0.00,0.00,-0.00,-0.02,-0.05,9.80,0,0,0
89,0.00,-0.00,-0.00,0.00,-0.01,9.86,0,0,0
90,0.00,-0.00,-0.00,0.00,-0.03,9.84,0,0,0
91,-0.00,-0.00,-0.00,-0.06,-0.02,9.81,0,0,0
92,0.00,-0.00,-0.00,0.02,-0.00,9.76,0,0,0
93,0.00,-0.00,-0.00,-0.03,-0.01,9.73,0,0,0
94,-0.00,-0.01,-0.00,-0.02,-0.04,9.80,0,0,0
95,0.00,-0.00,-0.00,0.00,-0.06,9.81,0,0,0
96,-0.00,-0.00,-0.00,-0.05,-0.03,9.78,0,0,0
97,0.00,-0.00,-0.00,-0.05,-0.03,9.77,0,0,0
98,0.00,0.00,-0.00,-0.04,-0.05,9.75,0,0,0
99,0.00,-0.00,-0.00,-0.03,-0.06,9.82,0,0,0
100,0.00,-0.00,-0.00,-0.05,-0.02,9.72,0,0,0
101,0.00,-0.01,-0.00,-0.05,0.00,9.73,0,0,0
102,0.00,-0.00,-0.00,-0.02,-0.07,9.79,0,0,0
103,0.00,-0.00,-0.01,-0.04,-0.01,9.72,0,0,0
104,0.00,0.00,-0.00,-0.02,0.02,9.81,0,0,0
105,-0.00,0.00,-0.00,0.03,-0.05,9.79,0,0,0
106,0.00,-0.00,-0.00,-0.02,-0.04,9.79,0,0,0
107,0.00,-0.00,-0.01,-0.05,-0.06,9.78,0,0,0
108,-0.00,-0.00,-0.00,-0.00,0.01,9.75,0,0,0
109,0.00,0.00,-0.01,-0.02,-0.02,9.83,0,0,0
110,-0.00,0.00,-0.00,0.03,-0.00,9.76,0,0,0
111,-0.00,-0.00,-0.00,0.01,-0.00,9.78,0,0,0
112,0.00,-0.00,-0.00,-0.01,-0.03,9.78,0,0,0
113,0.00,-0.00,-0.00,-0.00,-0.05,9.79,0,0,0
114,0.00,-0.00,-0.00,-0.03,-0.03,9.85,0,0,0
115,0.00,-0.00,-0.00,0.03,0.01,9.80,0,0,0
116,-0.00,-0.00,-0.00,-0.03,-0.04,9.80,0,0,0
117,0.00,-0.00,-0.00,-0.03,0.00,9.77,0,0,0
118,-0.00,-0.00,-0.00,-0.05,-0.02,9.78,0,0,0
119,0.00,-0.00,-0.00,0.00,-0.02,9.74,0,0,0
120,-0.00,0.00,-0.00,-0.03,0.00,9.78,0,0,0
121,0.00,-0.00,-0.00,0.04,-0.00,9.81,0,0,0
122,-0.00,-0.00,-0.00,0.00,-0.03,9.84,0,0,0
123,0.00,-0.00,-0.00,-0.02,-0.00,9.80,0,0,0
124,0.00,-0.00,-0.00,0.02,-0.02,9.78,0,0,0
125,-0.00,-0.00,-0.00,-0.02,-0.02,9.74,0,0,0
126,0.00,-0.00,-0.00,-0.06,-0.01,9.73,0,0,0
127,0.00,-0.00,-0.00,0.03,-0.02,9.82,0,0,0
128,0.00,-0.00,-0.00,-0.06,-0.02,9.76,0,0,0
129,0.00,-0.00,-0.00,-0.01,-0.05,9.81,0,0,0
130,0.00,-0.00,-0.00,-0.04,-0.00,9.79,0,0,0
131,0.00,-0.00,-0.00,-0.07,-0.07,9.76,0,0,0
132,0.00,-0.00,-0.00,-0.04,-0.02,9.80,0,0,0
133,-0.00,-0.00,-0.00,-0.00,-0.01,9.72,0,0,0
134,0.00,-0.00,-0.00,-0.03,-0.05,9.81,0,0,0
135,-0.00,-0.00,-0.00,-0.04,0.02,9.81,0,0,0
136,-0.00,-0.00,-0.00,-0.06,-0.02,9.77,0,0,0
137,-0.00,0.00,-0.00,-0.03,0.01,9.85,0,0,0
138,-0.00,-0.00,-0.00,-0.02,-0.05,9.77,0,0,0
139,0.00,-0.00,-0.00,-0.06,-0.01,9.73,0,0,0
140,-0.00,0.00,0.00,-0.02,-0.03,9.77,0,0,0
141,0.00,-0.00,-0.00,0.00,0.01,9.74,0,0,0
142,0.00,-0.00,-0.00,-0.01,0.02,9.75,0,0,0
143,0.00,-0.00,-0.00,-0.07,-0.05,9.83,0,0,0
144,0.00,-0.00,-0.00,0.02,-0.01,9.81,0,0,0
145,-0.00,-0.00,-0.00,0.06,-0.03,9.77,0,0,0
146,0.00,-0.00,-0.00,-0.02,-0.02,9.82,0,0,0
147,0.00,-0.01,-0.01,0.01,-0.00,9.76,0,0,0
148,0.00,-0.00,-0.00,0.00,-0.06,9.74,0,0,0
149,0.00,-0.00,-0.00,-0.05,-0.02,9.82,0,0,0
150,0.00,-0.00,-0.00,-0.07,-0.03,9.84,0,0,0
151,0.00,-0.00,-0.00,-0.01,-0.04,9.83,0,0,0
152,0.00,-0.00,-0.00,-0.02,-0.02,9.84,0,0,0
153,-0.00,0.00,-0.00,0.04,-0.02,9.81,0,0,0
154,0.00,-0.00,-0.00,0.01,-0.02,9.73,0,0,0
155,0.00,-0.00,-0.00,-0.06,-0.04,9.76,0,0,0
156,0.00,-0.00,-0.00,0.03,-0.02,9.81,0,0,0
157,0.00,-0.00,-0.00,-0.03,-0.06,9.77,0,0,0
158,0.00,-0.01,-0.00,0.00,-0.02,9.81,0,0,0
159,0.00,-0.00,-0.00,-0.06,-0.00,9.84,0,0,0
160,0.00,-0.00,-0.00,-0.05,-0.01,9.77,0,0,0
161,0.00,-0.00,-0.00,-0.02,-0.03,9.79,0,0,0
162,0.00,-0.00,-0.00,-0.01,-0.03,9.77,0,0,0
163,-0.00,-0.00,-0.00,-0.06,-0.05,9.75,0,0,0
164,0.00,-0.00,-0.00,-0.05,0.03,9.78,0,0,0
165,0.00,-0.00,-0.00,0.03,0.00,9.79,0,0,0
166,0.00,-0.00,-0.00,-0.03,-0.02,9.83,0,0,0
167,0.00,-0.00,-0.00,-0.02,-0.02,9.85,0,0,0
168,-0.00,-0.00,-0.00,-0.01,-0.02,9.88,0,0,0
169,0.00,-0.00,-0.00,0.00,-0.06,9.86,0,0,0
170,0.00,-0.00,-0.00,-0.06,-0.01,9.75,0,0,0
171,0.00,-0.00,-0.00,0.00,-0.07,9.85,0,0,0
172,0.00,-0.00,-0.00,-0.04,-0.02,9.76,0,0,0
173,0.00,0.00,-0.00,0.00,-0.05,9.77,0,0,0
174,0.00,-0.00,-0.00,-0.02,-0.01,9.79,0,0,0
175,0.00,0.00,-0.00,-0.04,0.00,9.80,0,0,0
176,0.00,-0.00,-0.00,0.02,-0.04,9.79,0,0,0
177,0.00,-0.00,-0.00,-0.03,-0.00,9.75,0,0,0
178,0.00,-0.01,-0.00,-0.02,-0.05,9.74,0,0,0
179,0.00,-0.00,-0.00,-0.05,0.04,9.78,0,0,0
180,0.00,-0.00,-0.00,-0.05,-0.00,9.80,0,0,0
181,0.00,-0.00,-0.00,-0.00,-0.05,9.82,0,0,0
182,-0.00,-0.00,-0.00,0.00,-0.06,9.86,0,0,0
183,0.00,-0.00,-0.00,-0.07,-0.00,9.75,0,0,0
184,0.00,-0.00,-0.00,-0.03,-0.01,9.72,0,0,0
185,0.00,-0.00,-0.00,-0.05,-0.02,9.84,0,0,0
186,0.00,-0.00,-0.00,0.03,-0.03,9.74,0,0,0
187,0.00,0.00,-0.00,-0.04,0.01,9.74,0,0,0
188,0.00,-0.00,-0.00,-0.02,-0.03,9.78,0,0,0
189,0.00,-0.00,-0.00,0.00,-0.04,9.76,0,0,0
190,0.00,-0.00,-0.00,0.03,-0.03,9.73,0,0,0
191,0.00,-0.01,-0.00,-0.02,-0.01,9.76,0,0,0
192,0.00,-0.00,-0.00,-0.01,-0.06,9.80,0,0,0
193,0.00,-0.00,-0.00,0.00,-0.02,9.74,0,0,0
194,-0.00,-0.00,-0.00,-0.01,-0.05,9.81,0,0,0
195,0.00,-0.00,-0.00,0.01,-0.04,9.71,0,0,0
196,0.00,-0.00,-0.00,-0.03,-0.03,9.78,0,0,0
197,0.00,0.00,-0.00,-0.03,-0.03,9.83,0,0,0
198,0.00,-0.00,-0.00,-0.03,0.03,9.83,0,0,0
199,0.00,-0.00,-0.00,-0.01,-0.05,9.75,0,0,0
200,-0.00,-0.00,-0.00,0.00,0.00,9.71,0,0,0
201,0.00,-0.00,-0.00,0.03,-0.03,9.81,0,0,0
202,0.00,-0.00,-0.00,-0.05,-0.03,9.82,0,0,0
203,0.00,0.00,-0.00,-0.02,-0.01,9.84,0,0,0
204,0.00,-0.00,0.00,-0.03,-0.00,9.81,0,0,0
205,0.00,-0.00,-0.00,0.04,0.01,9.79,0,0,0
206,0.00,-0.00,-0.00,-0.04,-0.07,9.73,0,0,0
207,0.00,-0.00,-0.00,-0.01,-0.05,9.76,0,0,0
208,0.00,-0.00,-0.00,0.03,-0.03,9.81,0,0,0
209,0.00,-0.00,-0.00,-0.07,-0.00,9.73,0,0,0
210,0.00,-0.00,-0.00,-0.02,-0.05,9.73,0,0,0
211,0.00,-0.01,-0.00,-0.01,-0.03,9.83,0,0,0
212,0.00,0.00,-0.00,0.00,-0.00,9.68,0,0,0
213,0.00,-0.00,-0.00,-0.02,-0.01,9.80,0,0,0
214,0.00,-0.00,-0.00,-0.03,-0.03,9.79,0,0,0
215,0.00,-0.00,-0.00,-0.08,-0.01,9.80,0,0,0
216,0.00,-0.00,-0.00,-0.06,0.02,9.82,0,0,0
217,0.00,-0.00,-0.00,-0.04,-0.09,9.79,0,0,0
218,-0.00,0.00,-0.00,-0.02,-0.06,9.73,0,0,0
219,0.00,-0.00,-0.00,-0.03,-0.02,9.78,0,0,0
220,0.00,-0.00,-0.00,-0.01,-0.01,9.78,0,0,0
221,0.00,0.00,-0.00,-0.01,-0.01,9.73,0,0,0
222,0.00,-0.00,-0.00,-0.00,-0.06,9.80,0,0,0
223,0.00,-0.00,-0.00,0.02,-0.06,9.77,0,0,0
224,0.00,-0.00,-0.00,-0.04,-0.05,9.74,0,0,0
225,-0.00,-0.00,-0.00,-0.01,-0.01,9.82,0,0,0
226,0.00,-0.00,-0.00,-0.03,-0.02,9.80,0,0,0
227,-0.00,-0.00,-0.00,-0.04,-0.02,9.76,0,0,0
228,0.00,-0.00,-0.00,-0.00,-0.04,9.85,0,0,0
229,0.00,0.00,-0.00,-0.02,-0.01,9.79,0,0,0
230,0.00,-0.00,-0.00,-0.02,-0.07,9.84,0,0,0
231,-0.00,0.00,-0.00,-0.02,-0.01,9.73,0,0,0
232,0.00,-0.00,-0.00,-0.03,-0.02,9.72,0,0,0
233,0.00,-0.00,-0.00,0.00,-0.01,9.82,0,0,0
234,0.01,-0.00,-0.00,0.04,-0.07,9.75,0,0,0
235,0.00,-0.01,-0.00,-0.06,-0.05,9.76,0,0,0
236,-0.00,0.00,-0.00,-0.00,-0.01,9.85,0,0,0
237,0.00,-0.00,-0.00,0.01,0.01,9.78,0,0,0
238,0.00,-0.00,-0.00,-0.02,-0.02,9.79,0,0,0
239,0.00,-0.00,-0.00,-0.06,-0.00,9.75,0,0,0
240,0.00,-0.00,-0.00,0.01,0.01,9.80,0,0,0
241,0.00,-0.00,-0.00,-0.01,-0.03,9.75,0,0,0
242,0.00,-0.00,-0.00,-0.00,-0.00,9.83,0,0,0
243,0.00,-0.00,-0.00,-0.01,-0.01,9.80,0,0,0
244,-0.00,-0.00,-0.00,-0.01,-0.04,9.78,0,0,0
245,0.00,-0.00,-0.01,-0.02,-0.03,9.83,0,0,0
246,0.00,-0.00,-0.00,0.01,-0.01,9.85,0,0,0
247,0.00,0.00,-0.00,-0.01,-0.07,9.71,0,0,0
248,-0.00,-0.00,-0.00,-0.03,-0.03,9.79,0,0,0
249,-0.00,-0.00,-0.00,-0.03,-0.03,9.79,0,0,0
250,-0.00,-0.00,-0.00,0.00,-0.07,9.77,0,0,0
251,0.00,-0.00,-0.00,0.01,-0.05,9.70,0,0,0
252,-0.00,-0.00,-0.00,0.00,-0.07,9.84,0,0,0
253,0.00,-0.01,-0.00,-0.01,0.00,9.76,0,0,0
254,0.00,-0.00,-0.00,-0.01,-0.07,9.77,0,0,0
255,0.00,-0.00,-0.00,-0.03,-0.06,9.88,0,0,0
256,0.00,-0.01,-0.00,-0.01,-0.04,9.77,0,0,0
257,-0.00,-0.00,-0.00,-0.03,-0.04,9.72,0,0,0
258,0.00,-0.00,-0.01,-0.00,-0.06,9.82,0,0,0
259,-0.00,-0.00,-0.00,-0.05,-0.01,9.80,0,0,0
260,-0.00,-0.00,-0.00,-0.01,-0.03,9.73,0,0,0
261,0.00,-0.00,-0.00,-0.02,-0.02,9.79,0,0,0
262,-0.00,-0.00,-0.00,-0.05,-0.02,9.82,0,0,0
263,0.00,-0.01,-0.00,-0.04,-0.03,9.86,0,0,0
264,-0.00,-0.00,-0.00,-0.02,-0.06,9.82,0,0,0
265,0.00,-0.00,-0.00,0.00,-0.00,9.74,0,0,0
266,0.00,-0.00,-0.00,0.03,-0.03,9.82,0,0,0
267,0.00,-0.00,0.00,0.01,-0.02,9.80,0,0,0
268,-0.00,-0.00,-0.00,-0.02,-0.02,9.78,0,0,0
269,0.00,-0.00,-0.00,0.01,-0.02,9.80,0,0,0
270,0.00,-0.00,-0.00,-0.01,-0.05,9.80,0,0,0
271,-0.00,-0.00,-0.00,0.02,-0.01,9.80,0,0,0
272,-0.00,-0.00,-0.00,-0.03,-0.00,9.82,0,0,0
273,0.00,-0.00,-0.00,-0.08,-0.04,9.82,0,0,0
274,-0.00,-0.00,-0.00,-0.04,-0.01,9.79,0,0,0
275,0.00,-0.00,-0.00,-0.04,-0.07,9.79,0,0,0
276,0.00,-0.00,-0.00,-0.06,-0.00,9.73,0,0,0
277,0.00,-0.01,-0.00,-0.01,-0.00,9.75,0,0,0
278,-0.00,-0.00,-0.00,-0.09,0.03,9.80,0,0,0
279,0.00,-0.00,-0.00,0.00,-0.00,9.79,0,0,0
280,0.00,0.00,-0.00,-0.02,0.01,9.78,0,0,0
281,0.00,-0.00,-0.00,-0.02,-0.07,9.73,0,0,0
282,-0.00,-0.00,-0.00,0.01,-0.01,9.76,0,0,0
283,-0.00,-0.00,-0.00,-0.03,-0.08,9.84,0,0,0
284,0.00,-0.00,-0.00,-0.09,-0.01,9.87,0,0,0
285,0.00,-0.00,-0.00,-0.04,-0.04,9.76,0,0,0
286,0.00,-0.00,-0.00,-0.07,0.02,9.87,0,0,0
287,0.00,-0.00,-0.00,0.02,0.01,9.81,0,0,0
288,0.00,-0.00,-0.00,-0.04,-0.02,9.84,0,0,0
289,0.00,-0.00,-0.00,-0.03,0.01,9.77,0,0,0
290,-0.00,-0.00,-0.00,-0.02,-0.03,9.76,0,0,0
291,0.00,0.00,-0.00,-0.07,-0.03,9.84,0,0,0
292,0.00,-0.00,-0.00,-0.02,-0.03,9.80,0,0,0
293,-0.00,-0.00,-0.00,-0.04,-0.04,9.76,0,0,0
294,-0.00,-0.01,-0.00,-0.07,-0.00,9.82,0,0,0
295,0.00,-0.00,-0.00,0.01,-0.06,9.76,0,0,0
296,-0.00,-0.00,-0.00,-0.02,-0.06,9.77,0,0,0
297,0.00,-0.00,-0.00,-0.04,-0.09,9.82,0,0,0
298,0.00,-0.00,-0.00,0.03,-0.02,9.78,0,0,0
299,-0.00,-0.00,-0.00,0.01,-0.01,9.82,0,0,0
300,0.00,0.00,-0.00,-0.03,-0.10,9.79,0,0,0
301,0.00,-0.00,-0.00,-0.03,0.02,9.76,0,0,0
302,-0.00,-0.00,-0.00,-0.04,0.00,9.78,0,0,0
303,0.00,-0.00,-0.00,-0.06,-0.08,9.80,0,0,0
304,0.00,-0.00,-0.00,-0.01,-0.04,9.73,0,0,0
305,0.00,-0.00,-0.00,-0.03,-0.06,9.75,0,0,0
306,0.00,-0.00,-0.00,-0.02,-0.05,9.75,0,0,0
307,0.00,-0.00,-0.00,-0.00,-0.04,9.73,0,0,0
308,-0.00,-0.00,-0.00,-0.05,-0.04,9.84,0,0,0
309,0.00,-0.00,-0.00,-0.03,-0.01,9.81,0,0,0
310,0.00,-0.00,-0.00,0.00,-0.00,9.78,0,0,0
311,0.00,-0.00,-0.00,0.01,-0.03,9.77,0,0,0
312,0.00,0.00,-0.00,-0.07,-0.01,9.77,0,0,0
313,0.00,-0.00,-0.00,0.00,0.03,9.75,0,0,0
314,-0.00,-0.00,-0.00,-0.04,-0.04,9.74,0,0,0
315,0.00,-0.00,-0.00,-0.05,-0.01,9.81,0,0,0
316,0.00,-0.00,-0.00,-0.07,-0.00,9.78,0,0,0
317,0.00,-0.00,-0.00,-0.04,-0.06,9.78,0,0,0
318,0.00,-0.01,-0.00,-0.02,-0.02,9.65,0,0,0
319,0.00,-0.00,-0.00,0.02,-0.05,9.69,0,0,0
320,0.00,-0.00,-0.00,-0.02,-0.05,9.74,0,0,0
321,-0.00,0.00,-0.00,0.01,-0.03,9.80,0,0,0
322,0.00,-0.00,-0.00,-0.07,0.00,9.79,0,0,0
323,0.00,-0.00,-0.00,0.02,-0.03,9.81,0,0,0
324,0.00,-0.00,-0.00,-0.02,-0.03,9.73,0,0,0
325,-0.00,-0.00,-0.00,-0.02,-0.00,9.77,0,0,0
326,-0.00,0.00,-0.00,0.00,-0.02,9.85,0,0,0
327,0.00,-0.00,-0.00,0.00,0.00,9.83,0,0,0
328,0.00,-0.00,-0.00,-0.02,-0.03,9.80,0,0,0
329,-0.00,0.00,-0.00,-0.05,-0.01,9.71,0,0,0
330,0.00,-0.00,-0.00,-0.06,-0.04,9.80,0,0,0
331,0.00,-0.01,-0.00,0.02,-0.10,9.79,0,0,0
332,0.00,0.00,-0.00,0.00,-0.01,9.76,0,0,0
333,0.00,-0.00,-0.00,0.01,-0.07,9.78,0,0,0
334,-0.00,-0.00,-0.00,-0.01,-0.03,9.79,0,0,0
335,-0.00,-0.00,-0.00,-0.01,-0.03,9.76,0,0,0
336,0.00,-0.00,-0.00,-0.01,-0.06,9.74,0,0,0
337,0.00,-0.00,-0.00,-0.04,0.02,9.81,0,0,0
338,0.00,-0.00,-0.00,-0.04,-0.02,9.79,0,0,0
339,0.00,-0.00,-0.00,-0.09,-0.05,9.77,0,0,0
340,-0.00,-0.00,-0.00,-0.02,-0.05,9.77,0,0,0
341,0.00,-0.00,-0.00,-0.05,0.01,9.83,0,0,0
342,-0.00,-0.00,-0.00,-0.01,-0.05,9.84,0,0,0
343,0.00,-0.00,-0.00,-0.02,-0.05,9.75,0,0,0
344,0.00,-0.00,-0.00,-0.06,-0.00,9.76,0,0,0
345,0.00,-0.00,-0.00,0.00,-0.05,9.77,0,0,0
346,0.00,-0.00,-0.00,-0.01,-0.01,9.75,0,0,0
347,0.00,-0.00,-0.00,-0.02,-0.03,9.83,0,0,0
348,0.00,-0.00,-0.00,-0.02,-0.03,9.81,0,0,0
349,0.00,-0.00,-0.00,0.00,0.01,9.78,0,0,0
350,0.00,-0.00,0.00,-0.09,-0.03,9.79,0,0,0
351,0.00,-0.00,-0.00,0.03,-0.01,9.87,0,0,0
352,0.00,-0.00,-0.00,-0.07,-0.04,9.78,0,0,0
353,0.00,0.00,-0.00,-0.01,-0.06,9.73,0,0,0
354,-0.00,-0.00,-0.00,-0.02,-0.03,9.78,0,0,0
355,0.00,0.00,-0.00,-0.04,-0.05,9.82,0,0,0
356,0.00,-0.00,-0.00,-0.02,0.02,9.75,0,0,0
357,0.00,-0.00,-0.00,-0.07,-0.03,9.76,0,0,0
358,0.00,-0.00,-0.00,-0.00,0.01,9.71,0,0,0
359,-0.00,0.00,-0.00,-0.03,-0.06,9.73,0,0,0
360,0.00,-0.00,-0.00,-0.00,-0.03,9.76,0,0,0
361,0.00,-0.00,-0.00,0.00,0.00,9.83,0,0,0
362,0.00,-0.00,-0.00,-0.06,-0.01,9.76,0,0,0
363,0.00,-0.01,-0.00,-0.05,-0.05,9.80,0,0,0
364,0.00,-0.00,-0.00,-0.04,0.03,9.59,0,0,0
365,0.00,-0.00,-0.00,0.00,-0.04,9.76,0,0,0
366,0.00,-0.00,-0.00,-0.05,-0.05,9.81,0,0,0
367,-0.00,-0.00,-0.00,-0.04,0.02,9.80,0,0,0
368,0.00,-0.00,-0.00,0.00,-0.09,9.78,0,0,0
369,0.00,-0.00,-0.00,-0.02,-0.06,9.76,0,0,0
370,0.00,-0.00,-0.00,-0.00,0.01,9.86,0,0,0
371,-0.00,-0.00,-0.00,0.05,-0.01,9.70,0,0,0
372,0.00,-0.00,-0.00,0.03,-0.05,9.84,0,0,0
373,-0.00,-0.00,-0.00,-0.04,-0.06,9.85,0,0,0
374,0.00,-0.00,0.00,-0.00,-0.06,9.74,0,0,0
375,0.00,-0.00,-0.00,0.00,-0.04,9.74,0,0,0
376,0.00,-0.00,-0.00,-0.05,-0.05,9.81,0,0,0
377,0.00,-0.00,-0.00,-0.02,-0.07,9.78,0,0,0
378,0.00,-0.00,-0.00,-0.04,-0.05,9.72,0,0,0
379,-0.00,-0.00,-0.00,-0.00,-0.01,9.79,0,0,0
380,0.00,-0.00,-0.00,0.01,-0.03,9.79,0,0,0
381,0.00,-0.00,-0.00,-0.00,-0.00,9.84,0,0,0
382,0.00,0.00,-0.00,-0.09,0.01,9.78,0,0,0
383,-0.00,-0.00,-0.01,0.02,-0.02,9.82,0,0,0
384,0.00,-0.00,-0.00,0.00,-0.04,9.75,0,0,0
385,0.00,-0.00,-0.00,-0.03,-0.02,9.81,0,0,0
386,0.00,-0.00,-0.00,0.03,-0.05,9.76,0,0,0
387,-0.00,-0.00,-0.00,-0.03,-0.00,9.79,0,0,0
388,0.00,-0.00,-0.00,0.02,-0.05,9.76,0,0,0
389,0.00,-0.00,-0.00,-0.04,-0.03,9.84,0,0,0
390,0.00,-0.00,-0.00,-0.03,-0.02,9.79,0,0,0
391,0.00,0.00,-0.00,-0.01,-0.04,9.80,0,0,0
392,-0.00,-0.00,-0.00,-0.01,-0.02,9.77,0,0,0
393,-0.00,-0.00,-0.00,-0.08,-0.01,9.85,0,0,0
394,0.00,-0.00,-0.00,-0.04,-0.02,9.79,0,0,0
395,-0.00,-0.00,-0.00,0.03,-0.04,9.80,0,0,0
396,-0.00,-0.00,-0.00,-0.02,-0.05,9.79,0,0,0
397,-0.00,-0.00,-0.00,0.00,-0.02,9.73,0,0,0
398,-0.00,-0.00,-0.00,0.05,-0.08,9.78,0,0,0
399,0.00,-0.00,-0.00,0.06,-0.02,9.78,0,0,0
400,0.00,0.00,-0.00,-0.09,0.06,9.64,0,0,0
401,0.00,-0.00,-0.00,0.07,0.02,9.86,0,0,0
402,0.00,-0.00,-0.00,-0.03,-0.05,9.71,0,0,0
403,-0.00,-0.00,-0.00,-0.05,-0.02,9.80,0,0,0
404,-0.00,-0.00,-0.00,-0.04,-0.07,9.83,0,0,0
405,0.00,0.00,-0.00,0.00,-0.02,9.76,0,0,0
406,0.00,-0.00,-0.00,-0.00,-0.02,9.86,0,0,0
407,0.00,-0.00,-0.00,-0.00,-0.02,9.84,0,0,0
408,0.00,-0.00,-0.00,0.04,0.03,9.83,0,0,0
409,0.00,-0.00,-0.00,-0.04,-0.01,9.74,0,0,0
410,0.00,0.00,-0.00,0.02,0.03,9.77,0,0,0
411,-0.00,-0.00,-0.00,-0.01,-0.03,9.87,0,0,0
412,0.00,0.00,-0.00,-0.03,-0.02,9.72,0,0,0
413,0.00,-0.00,-0.00,-0.04,-0.05,9.72,0,0,0
414,0.00,-0.00,-0.00,0.00,-0.04,9.81,0,0,0
415,-0.00,0.00,-0.00,-0.08,-0.05,9.82,0,0,0
416,0.00,-0.00,-0.00,0.02,-0.01,9.74,0,0,0
417,0.00,-0.00,-0.00,-0.04,-0.00,9.82,0,0,0
418,-0.00,-0.00,-0.00,0.01,-0.00,9.70,0,0,0
419,-0.00,-0.00,-0.00,-0.03,-0.03,9.77,0,0,0
420,0.00,-0.00,-0.00,-0.03,-0.01,9.80,0,0,0
421,0.00,-0.00,0.00,-0.02,-0.02,9.82,0,0,0
422,0.00,-0.00,-0.00,0.01,-0.09,9.77,0,0,0
423,0.00,-0.00,-0.00,-0.01,-0.02,9.81,0,0,0
424,0.00,-0.00,-0.01,0.00,-0.06,9.71,0,0,0
425,0.00,-0.00,-0.00,-0.00,-0.02,9.76,0,0,0
426,0.00,-0.00,-0.00,0.00,-0.07,9.75,0,0,0
427,-0.00,-0.00,-0.00,0.03,-0.06,9.78,0,0,0
428,0.00,-0.00,-0.00,-0.03,-0.08,9.74,0,0,0
429,0.00,-0.00,-0.00,-0.00,-0.02,9.76,0,0,0
430,-0.00,-0.01,-0.00,-0.02,-0.08,9.78,0,0,0
431,0.00,-0.00,-0.01,0.00,-0.03,9.84,0,0,0
432,0.00,-0.00,-0.00,-0.05,-0.01,9.83,0,0,0
433,0.00,-0.00,-0.00,-0.02,-0.01,9.81,0,0,0
434,0.00,-0.00,0.00,0.03,-0.01,9.82,0,0,0
435,0.00,-0.00,-0.00,-0.05,-0.00,9.77,0,0,0
436,0.00,-0.00,-0.00,-0.00,0.02,9.80,0,0,0
437,0.00,0.00,-0.00,-0.00,-0.02,9.78,0,0,0
438,-0.00,-0.00,-0.00,-0.05,-0.06,9.73,0,0,0
439,0.00,-0.00,-0.00,0.00,-0.03,9.80,0,0,0
440,-0.00,-0.00,-0.00,-0.00,-0.03,9.82,0,0,0
441,0.00,-0.00,-0.00,-0.01,-0.00,9.73,0,0,0
442,-0.00,-0.00,-0.00,-0.01,0.03,9.74,0,0,0
443,0.00,-0.00,-0.00,-0.01,0.00,9.77,0,0,0
444,0.00,-0.00,-0.00,-0.00,0.02,9.74,0,0,0
445,-0.00,-0.00,-0.00,-0.02,-0.03,9.80,0,0,0
446,0.00,-0.00,-0.00,-0.01,-0.02,9.78,0,0,0
447,0.00,-0.00,-0.00,-0.04,-0.00,9.83,0,0,0
448,-0.00,-0.00,-0.00,-0.03,-0.01,9.91,0,0,0
449,0.00,-0.00,-0.00,-0.07,-0.03,9.78,0,0,0
450,0.00,-0.00,-0.00,-0.06,-0.01,9.78,0,0,0
451,-0.00,-0.00,-0.00,0.02,-0.04,9.87,0,0,0
452,-0.00,-0.00,-0.00,-0.00,-0.03,9.83,0,0,0
453,0.00,-0.00,-0.00,-0.04,-0.04,9.71,0,0,0
454,0.00,-0.00,-0.00,0.07,0.08,9.79,0,0,0
455,0.00,-0.00,-0.00,0.07,0.06,9.87,0,0,0
456,0.00,-0.00,-0.00,0.08,-0.02,9.87,0,0,0
457,0.00,-0.00,-0.00,-0.06,-0.01,9.72,0,0,0
458,0.00,0.00,-0.00,-0.08,-0.03,9.73,0,0,0
459,0.00,-0.00,-0.00,-0.03,-0.01,9.81,0,0,0
460,0.00,0.00,-0.00,-0.00,-0.02,9.77,0,0,0
461,-0.00,-0.00,-0.00,0.00,-0.02,9.79,0,0,0
462,0.00,-0.00,-0.00,0.02,-0.03,9.76,0,0,0
463,-0.00,-0.00,-0.00,-0.01,-0.04,9.75,0,0,0
464,-0.00,-0.00,-0.00,0.00,-0.09,9.85,0,0,0
465,0.00,-0.00,-0.00,0.04,-0.05,9.70,0,0,0
466,0.00,0.00,-0.00,-0.01,-0.02,9.78,0,0,0
467,0.00,-0.00,-0.00,-0.04,-0.01,9.75,0,0,0
468,0.00,0.00,-0.00,-0.05,-0.05,9.86,0,0,0
469,-0.00,-0.00,-0.00,-0.03,-0.07,9.72,0,0,0
470,0.00,-0.00,-0.00,-0.03,-0.00,9.80,0,0,0
471,-0.00,-0.00,-0.00,0.00,-0.06,9.75,0,0,0
472,0.00,-0.00,-0.00,-0.04,-0.02,9.77,0,0,0
473,0.00,-0.00,-0.00,0.02,-0.06,9.71,0,0,0
474,0.00,0.00,-0.00,-0.07,-0.02,9.82,0,0,0
475,0.00,-0.00,-0.00,0.00,-0.06,9.82,0,0,0
476,-0.00,0.00,-0.00,-0.02,-0.02,9.80,0,0,0
477,0.00,-0.00,-0.00,0.01,0.01,9.76,0,0,0
478,0.00,-0.00,-0.00,0.02,0.04,9.77,0,0,0
479,0.00,-0.00,-0.00,-0.01,-0.03,9.79,0,0,0
480,0.00,-0.00,-0.00,-0.00,-0.03,9.77,0,0,0
481,0.00,-0.00,-0.00,-0.00,-0.04,9.83,0,0,0
482,0.00,-0.00,-0.00,-0.03,-0.01,9.72,0,0,0
483,0.00,-0.00,-0.00,-0.05,-0.00,9.80,0,0,0
484,-0.00,-0.01,-0.00,-0.02,-0.01,9.84,0,0,0
485,-0.00,-0.00,-0.00,-0.01,-0.00,9.81,0,0,0
486,0.00,-0.00,-0.00,-0.06,-0.04,9.76,0,0,0
487,-0.00,-0.00,-0.00,-0.02,-0.07,9.75,0,0,0
488,0.00,-0.00,-0.00,-0.03,-0.04,9.81,0,0,0
489,0.00,-0.00,-0.00,0.01,-0.04,9.81,0,0,0
490,0.00,0.00,-0.00,-0.04,-0.04,9.76,0,0,0
491,0.00,-0.00,-0.00,-0.08,-0.08,9.75,0,0,0
492,0.00,-0.01,-0.00,-0.02,-0.02,9.79,0,0,0
493,0.00,-0.00,-0.00,-0.04,-0.02,9.78,0,0,0
494,0.00,-0.00,-0.00,0.00,-0.07,9.78,0,0,0
495,0.00,-0.00,-0.00,-0.01,-0.05,9.80,0,0,0
496,0.00,-0.01,-0.00,-0.00,-0.01,9.84,0,0,0
497,0.00,-0.00,0.00,-0.02,-0.02,9.82,0,0,0
498,0.00,-0.00,-0.00,-0.04,0.03,9.80,0,0,0
499,-0.00,-0.01,-0.00,-0.07,-0.04,9.74,0,0,0
500,-0.00,-0.00,-0.00,-0.02,-0.09,9.76,0,0,0
501,0.00,-0.00,-0.00,-0.04,-0.00,9.82,0,0,0
502,0.00,-0.01,-0.00,0.00,-0.06,9.77,0,0,0
503,0.00,-0.00,-0.00,-0.03,-0.01,9.73,0,0,0
504,0.00,-0.00,-0.00,-0.02,-0.05,9.75,0,0,0
505,0.00,-0.00,-0.00,-0.05,-0.06,9.79,0,0,0
506,0.00,-0.00,-0.00,-0.01,-0.06,9.75,0,0,0
507,-0.00,-0.00,-0.00,0.01,-0.04,9.74,0,0,0
508,0.00,-0.00,-0.00,-0.06,-0.02,9.75,0,0,0
509,0.00,-0.00,-0.00,0.01,-0.05,9.77,0,0,0
510,0.00,-0.01,-0.00,-0.04,-0.02,9.75,0,0,0
511,0.00,-0.00,-0.00,0.03,-0.02,9.81,0,0,0
512,0.00,-0.00,-0.00,0.03,-0.04,9.79,0,0,0
513,-0.00,-0.00,-0.00,-0.03,-0.01,9.81,0,0,0
514,0.00,-0.00,-0.00,-0.05,-0.01,9.79,0,0,0
515,0.00,0.00,-0.00,0.05,0.01,9.78,0,0,0
516,0.00,-0.00,-0.00,0.01,-0.08,9.84,0,0,0
517,0.00,-0.00,-0.00,0.00,-0.01,9.70,0,0,0
518,0.00,-0.00,-0.00,-0.04,0.02,9.80,0,0,0
519,0.00,-0.00,-0.00,-0.07,-0.03,9.73,0,0,0
520,0.00,-0.00,-0.00,-0.01,-0.00,9.77,0,0,0
521,0.00,-0.00,-0.00,-0.01,-0.08,9.78,0,0,0
522,0.00,0.00,-0.00,-0.01,0.01,9.74,0,0,0
523,0.00,-0.00,-0.00,0.01,-0.07,9.81,0,0,0
524,0.00,-0.00,-0.00,-0.03,-0.08,9.73,0,0,0
525,0.00,-0.00,-0.00,0.00,-0.01,9.73,0,0,0
526,0.00,-0.00,-0.00,-0.04,-0.10,9.82,0,0,0
527,-0.00,-0.00,-0.00,-0.01,-0.00,9.85,0,0,0
528,0.00,-0.00,-0.00,0.02,-0.05,9.77,0,0,0
529,-0.00,-0.00,-0.00,-0.00,-0.03,9.82,0,0,0
530,-0.00,-0.00,-0.00,-0.04,-0.01,9.80,0,0,0
531,0.00,-0.00,-0.00,-0.05,-0.01,9.75,0,0,0
532,-0.00,-0.00,-0.00,-0.01,-0.05,9.75,0,0,0
533,-0.00,-0.00,-0.00,-0.01,-0.01,9.83,0,0,0
534,0.00,-0.00,-0.00,-0.01,-0.07,9.83,0,0,0
535,-0.00,-0.00,-0.00,-0.02,-0.02,9.79,0,0,0
536,-0.00,-0.00,-0.00,-0.07,-0.05,9.78,0,0,0
537,0.00,-0.00,-0.00,0.05,-0.01,9.75,0,0,0
538,0.00,-0.00,-0.00,-0.03,-0.04,9.73,0,0,0
539,0.00,-0.00,-0.00,-0.03,-0.02,9.74,0,0,0
540,0.00,-0.00,-0.00,-0.05,-0.01,9.87,0,0,0
541,0.00,-0.00,-0.00,-0.00,-0.07,9.81,0,0,0
542,0.00,0.00,-0.00,0.04,-0.09,9.80,0,0,0
543,0.00,0.00,-0.00,-0.08,-0.06,9.75,0,0,0
544,0.00,-0.00,-0.00,0.00,-0.09,9.84,0,0,0
545,-0.00,-0.00,-0.00,-0.00,-0.01,9.73,0,0,0
546,0.00,-0.00,-0.00,0.01,-0.04,9.79,0,0,0
547,-0.00,-0.00,-0.00,-0.02,-0.03,9.79,0,0,0
548,0.00,-0.00,-0.00,-0.02,-0.07,9.85,0,0,0
549,0.00,-0.00,-0.00,-0.01,-0.03,9.82,0,0,0
550,0.00,-0.00,-0.00,-0.04,-0.02,9.84,0,0,0
551,0.00,-0.00,-0.00,-0.02,-0.05,9.90,0,0,0
552,0.00,0.00,-0.00,-0.04,-0.01,9.78,0,0,0
553,0.00,-0.00,-0.00,-0.02,-0.00,9.77,0,0,0
554,0.00,-0.00,0.00,0.00,-0.01,9.77,0,0,0
555,0.00,-0.00,-0.00,-0.04,-0.06,9.82,0,0,0
556,-0.00,-0.00,-0.00,-0.02,-0.05,9.83,0,0,0
557,0.00,-0.00,-0.00,0.00,-0.07,9.83,0,0,0
558,-0.00,-0.00,-0.00,-0.02,-0.06,9.80,0,0,0
559,0.00,-0.00,-0.00,-0.02,-0.04,9.79,0,0,0
560,-0.00,-0.01,-0.00,-0.04,0.01,9.85,0,0,0
561,0.00,-0.00,-0.00,-0.03,-0.03,9.72,0,0,0
562,0.00,-0.00,-0.00,-0.08,-0.04,9.80,0,0,0
563,0.00,-0.00,-0.00,-0.05,-0.05,9.83,0,0,0
564,0.00,-0.00,-0.00,-0.02,-0.02,9.68,0,0,0
565,-0.00,-0.00,-0.00,0.01,-0.03,9.75,0,0,0
566,0.00,-0.00,-0.00,-0.00,0.02,9.76,0,0,0
567,-0.01,-0.01,-0.01,-0.01,0.01,9.89,0,0,0
568,0.00,-0.00,-0.00,-0.02,-0.05,9.73,0,0,0
569,0.00,0.00,-0.00,-0.03,-0.02,9.81,0,0,0
570,0.00,-0.00,-0.00,-0.03,0.04,9.81,0,0,0
571,-0.00,-0.00,-0.00,0.04,-0.04,9.78,0,0,0
572,0.00,-0.00,-0.00,-0.03,-0.00,9.85,0,0,0
573,0.00,-0.00,-0.00,-0.02,-0.05,9.85,0,0,0
574,-0.00,-0.01,-0.00,0.01,-0.05,9.84,0,0,0
575,0.00,-0.00,-0.00,-0.05,-0.02,9.83,0,0,0
576,0.00,-0.00,-0.00,0.01,-0.04,9.78,0,0,0
577,0.00,-0.00,-0.00,-0.07,-0.03,9.86,0,0,0
578,0.00,-0.00,-0.00,-0.00,-0.02,9.81,0,0,0
579,0.00,-0.00,-0.00,-0.03,-0.03,9.76,0,0,0
580,0.00,-0.00,-0.00,-0.01,-0.08,9.74,0,0,0
581,-0.00,-0.00,-0.00,-0.02,-0.00,9.78,0,0,0
582,0.00,-0.00,-0.00,-0.01,-0.06,9.81,0,0,0
583,-0.00,-0.00,-0.00,0.04,-0.04,9.77,0,0,0
584,0.00,-0.00,-0.00,-0.01,-0.01,9.80,0,0,0
585,0.00,-0.00,-0.00,-0.08,-0.05,9.81,0,0,0
586,0.00,-0.00,-0.00,-0.01,-0.06,9.81,0,0,0
587,0.00,-0.01,-0.00,-0.02,-0.09,9.83,0,0,0
588,0.00,-0.00,-0.00,0.00,-0.04,9.71,0,0,0
589,0.00,0.00,-0.00,-0.03,-0.03,9.80,0,0,0
590,0.00,-0.00,-0.00,-0.04,0.01,9.87,0,0,0
591,-0.00,0.00,-0.00,-0.02,-0.00,9.80,0,0,0
592,0.00,-0.00,-0.00,-0.06,0.01,9.84,0,0,0
593,-0.00,-0.00,-0.00,-0.02,-0.04,9.81,0,0,0
594,0.00,-0.00,-0.00,-0.01,-0.07,9.87,0,0,0
595,0.00,0.00,-0.00,-0.02,-0.04,9.77,0,0,0
596,0.00,-0.01,-0.00,-0.06,-0.05,9.80,0,0,0
597,0.00,-0.00,-0.00,-0.03,0.02,9.74,0,0,0
598,-0.00,-0.00,-0.00,0.02,-0.06,9.77,0,0,0
599,0.00,-0.00,-0.00,-0.04,0.00,9.76,0,0,0
600,0.00,-0.00,-0.00,-0.00,-0.01,9.70,0,0,0
601,0.00,-0.00,-0.00,-0.01,-0.07,9.82,0,0,0
602,0.00,0.00,-0.00,-0.00,-0.05,9.79,0,0,0
603,-0.00,-0.00,-0.00,-0.05,-0.01,9.82,0,0,0
604,0.00,-0.00,-0.00,0.04,-0.04,9.79,0,0,0
605,0.00,-0.00,-0.00,-0.04,0.00,9.80,0,0,0
606,0.00,-0.00,-0.00,-0.01,-0.02,9.76,0,0,0
607,0.00,-0.00,-0.00,0.01,-0.08,9.75,0,0,0
608,0.00,-0.00,-0.00,-0.06,-0.00,9.85,0,0,0
609,0.00,0.00,-0.00,0.00,0.01,9.78,0,0,0
610,-0.00,-0.00,-0.01,-0.02,-0.03,9.79,0,0,0
611,0.00,-0.01,-0.01,-0.06,-0.03,9.78,0,0,0
612,0.00,-0.00,-0.00,-0.04,-0.01,9.71,0,0,0
613,0.00,-0.00,-0.00,-0.06,-0.01,9.77,0,0,0
614,-0.00,-0.00,-0.00,-0.04,-0.00,9.78,0,0,0
615,0.00,-0.00,-0.00,0.02,-0.02,9.77,0,0,0
616,0.00,-0.00,-0.00,-0.01,-0.04,9.79,0,0,0
617,0.00,-0.00,-0.00,0.03,-0.01,9.78,0,0,0
618,0.00,-0.00,-0.00,-0.04,-0.03,9.82,0,0,0
619,0.00,-0.00,-0.00,0.00,0.02,9.80,0,0,0
620,0.00,-0.00,-0.00,-0.06,-0.04,9.80,0,0,0
621,0.00,-0.00,-0.00,0.02,-0.03,9.84,0,0,0
622,0.00,-0.00,-0.00,-0.00,-0.03,9.77,0,0,0
623,0.00,-0.00,-0.00,-0.02,-0.04,9.83,0,0,0
624,0.00,-0.00,-0.00,-0.06,-0.08,9.79,0,0,0
625,-0.00,-0.00,-0.00,-0.01,-0.01,9.72,0,0,0
626,0.00,-0.00,-0.00,0.01,-0.00,9.72,0,0,0
627,0.00,-0.00,-0.00,-0.01,-0.05,9.82,0,0,0
628,0.00,-0.00,-0.00,-0.02,-0.05,9.79,0,0,0
629,0.00,-0.00,-0.00,-0.03,-0.01,9.83,0,0,0
630,0.00,-0.00,-0.01,0.02,-0.05,9.84,0,0,0
631,-0.00,-0.00,-0.00,-0.03,-0.00,9.76,0,0,0
632,0.00,-0.00,-0.00,-0.03,-0.02,9.86,0,0,0
633,0.00,-0.00,-0.00,0.04,-0.05,9.75,0,0,0
634,-0.00,0.00,-0.00,0.00,-0.05,9.82,0,0,0
635,0.00,-0.00,-0.00,-0.09,-0.00,9.73,0,0,0
636,0.00,0.00,-0.00,0.01,-0.04,9.78,0,0,0
637,0.00,-0.00,-0.00,-0.05,0.00,9.73,0,0,0
638,0.00,-0.00,-0.00,-0.02,-0.01,9.76,0,0,0
639,0.00,-0.01,-0.00,-0.00,-0.03,9.83,0,0,0
640,0.00,-0.00,-0.00,-0.03,0.04,9.80,0,0,0
641,0.00,-0.00,-0.00,0.02,-0.04,9.87,0,0,0
642,0.00,-0.00,-0.00,0.05,-0.02,9.77,0,0,0
643,0.00,-0.00,-0.00,0.00,-0.07,9.75,0,0,0
644,0.00,-0.00,-0.00,-0.05,-0.00,9.77,0,0,0
645,0.00,-0.01,-0.00,0.01,-0.05,9.85,0,0,0
646,0.00,-0.00,-0.00,0.00,-0.03,9.82,0,0,0
647,-0.00,-0.00,-0.00,-0.01,-0.00,9.81,0,0,0
648,0.00,-0.00,-0.00,0.00,-0.05,9.82,0,0,0
649,-0.00,-0.00,-0.00,0.01,-0.03,9.86,0,0,0
650,-0.00,-0.00,-0.00,-0.00,-0.06,9.85,0,0,0
651,0.00,-0.01,-0.00,0.00,-0.06,9.84,0,0,0
652,-0.00,-0.00,-0.00,-0.04,-0.08,9.80,0,0,0
653,0.00,-0.01,-0.00,-0.00,-0.03,9.84,0,0,0
654,-0.00,-0.00,-0.00,-0.00,-0.02,9.84,0,0,0
655,0.00,-0.00,-0.00,-0.00,0.01,9.81,0,0,0
656,-0.00,-0.00,-0.00,0.01,-0.00,9.71,0,0,0
657,0.00,-0.00,-0.00,0.00,-0.05,9.78,0,0,0
658,0.00,-0.00,-0.00,-0.08,0.02,9.75,0,0,0
659,0.00,-0.00,-0.00,-0.05,0.04,9.85,0,0,0
660,-0.00,-0.00,-0.00,-0.01,0.02,9.80,0,0,0
661,0.00,-0.00,-0.00,-0.02,-0.00,9.75,0,0,0
662,-0.00,-0.00,-0.00,0.00,-0.00,9.76,0,0,0
663,0.00,-0.00,-0.00,-0.05,-0.01,9.80,0,0,0
664,0.00,-0.00,-0.00,-0.05,-0.04,9.78,0,0,0
665,0.00,-0.00,-0.00,-0.06,-0.03,9.69,0,0,0
666,0.00,-0.00,-0.00,-0.02,-0.02,9.80,0,0,0
667,0.00,-0.00,-0.00,-0.06,-0.01,9.75,0,0,0
668,0.00,-0.00,-0.00,-0.09,0.00,9.73,0,0,0
669,0.00,-0.00,-0.00,-0.07,-0.08,9.67,0,0,0
670,-0.00,-0.00,-0.00,-0.01,-0.05,9.79,0,0,0
671,0.00,-0.00,-0.00,-0.06,-0.04,9.72,0,0,0
672,-0.00,-0.00,-0.00,-0.03,-0.03,9.76,0,0,0
673,0.00,-0.00,-0.00,0.00,-0.00,9.79,0,0,0
674,0.00,-0.00,-0.00,-0.02,-0.02,9.80,0,0,0
675,0.00,0.00,-0.00,-0.07,-0.01,9.76,0,0,0
676,0.00,-0.00,-0.00,-0.00,-0.00,9.82,0,0,0
677,0.00,-0.00,-0.00,-0.09,-0.02,9.78,0,0,0
678,-0.00,-0.00,-0.00,-0.01,-0.01,9.76,0,0,0
679,-0.00,0.00,-0.00,-0.01,0.02,9.81,0,0,0
680,0.00,-0.01,-0.00,-0.03,-0.00,9.73,0,0,0
681,0.00,-0.00,-0.01,-0.04,-0.07,9.81,0,0,0
682,0.00,-0.00,-0.00,-0.01,-0.02,9.75,0,0,0
683,0.00,-0.01,-0.00,-0.03,-0.02,9.73,0,0,0
684,-0.00,-0.00,-0.00,-0.05,-0.08,9.78,0,0,0
685,-0.00,-0.00,-0.00,-0.00,-0.05,9.82,0,0,0
686,-0.00,-0.00,-0.00,-0.04,0.01,9.82,0,0,0
687,-0.00,-0.00,-0.00,-0.02,0.01,9.85,0,0,0
688,-0.00,-0.00,-0.00,-0.02,-0.05,9.76,0,0,0
689,0.00,-0.00,-0.00,-0.03,-0.07,9.84,0,0,0
690,-0.00,-0.00,-0.00,-0.01,-0.07,9.71,0,0,0
691,0.00,-0.00,-0.00,-0.01,0.03,9.79,0,0,0
692,0.00,-0.00,-0.00,-0.04,-0.06,9.80,0,0,0
693,0.00,-0.00,-0.00,-0.07,-0.03,9.75,0,0,0
694,0.00,-0.01,-0.00,-0.02,-0.04,9.77,0,0,0
695,0.00,-0.00,-0.00,-0.01,-0.04,9.77,0,0,0
696,0.00,-0.00,-0.00,-0.04,-0.02,9.70,0,0,0
697,-0.00,-0.00,-0.00,-0.01,0.01,9.69,0,0,0
698,0.00,-0.00,-0.00,-0.03,-0.01,9.73,0,0,0
699,-0.00,-0.00,-0.00,-0.05,-0.04,9.76,0,0,0
700,0.00,-0.00,-0.00,-0.06,0.00,9.88,0,0,0
701,-0.00,-0.00,-0.00,-0.07,0.01,9.83,0,0,0
702,0.00,-0.00,-0.00,0.03,-0.03,9.75,0,0,0
703,0.00,-0.01,-0.00,-0.05,-0.02,9.76,0,0,0
704,0.00,-0.00,-0.00,-0.06,-0.01,9.76,0,0,0
705,0.00,-0.00,-0.00,-0.07,0.03,9.79,0,0,0
706,0.00,-0.00,-0.00,-0.01,-0.07,9.70,0,0,0
707,0.00,-0.00,-0.00,-0.01,-0.05,9.71,0,0,0
708,-0.00,-0.00,-0.00,-0.01,-0.04,9.84,0,0,0
709,0.00,-0.00,-0.00,0.04,0.01,9.78,0,0,0
710,0.00,-0.00,-0.00,0.01,-0.08,9.76,0,0,0
711,0.00,-0.00,-0.00,-0.05,-0.00,9.77,0,0,0
712,-0.00,-0.00,-0.00,-0.02,-0.02,9.78,0,0,0
713,0.00,-0.00,-0.00,-0.03,-0.02,9.80,0,0,0
714,0.00,-0.00,-0.00,0.00,-0.01,9.82,0,0,0
715,0.00,-0.01,-0.00,0.01,-0.02,9.70,0,0,0
716,0.00,-0.00,-0.00,-0.03,-0.01,9.81,0,0,0
717,0.00,0.00,-0.00,-0.02,-0.01,9.85,0,0,0
718,0.00,-0.00,-0.00,-0.02,-0.01,9.81,0,0,0
719,0.00,-0.00,-0.00,-0.01,-0.02,9.76,0,0,0
720,-0.00,-0.00,-0.00,-0.03,0.00,9.77,0,0,0
721,-0.00,-0.00,-0.00,-0.03,-0.08,9.78,0,0,0
722,-0.00,-0.00,-0.00,0.06,-0.02,9.77,0,0,0
723,0.00,-0.00,-0.00,-0.03,-0.06,9.73,0,0,0
724,0.00,-0.00,-0.00,-0.04,-0.01,9.81,0,0,0
725,-0.00,-0.00,-0.00,-0.03,-0.01,9.79,0,0,0
726,0.00,-0.00,-0.00,-0.07,-0.07,9.76,0,0,0
727,-0.00,-0.00,0.00,0.01,-0.01,9.80,0,0,0
728,0.00,-0.00,-0.00,-0.05,-0.02,9.78,0,0,0
729,0.00,-0.00,-0.00,-0.01,0.00,9.76,0,0,0
730,0.00,-0.01,-0.00,0.01,-0.04,9.91,0,0,0
731,0.00,-0.00,-0.00,-0.03,-0.00,9.77,0,0,0
732,0.00,-0.00,-0.00,-0.04,-0.01,9.80,0,0,0
733,0.00,-0.00,-0.00,-0.01,-0.00,9.80,0,0,0
734,-0.00,-0.00,-0.00,-0.08,-0.05,9.75,0,0,0
735,0.00,-0.00,-0.00,0.02,-0.06,9.80,0,0,0
736,0.00,-0.00,-0.00,-0.04,-0.00,9.84,0,0,0
737,0.00,-0.00,-0.00,0.00,-0.04,9.80,0,0,0
738,0.00,-0.00,-0.00,0.01,-0.02,9.82,0,0,0
739,0.00,0.00,-0.00,0.02,-0.04,9.76,0,0,0
740,0.00,-0.00,-0.00,-0.02,-0.01,9.76,0,0,0
741,-0.00,-0.00,-0.00,-0.03,-0.00,9.79,0,0,0
742,-0.00,-0.00,-0.00,-0.03,-0.05,9.82,0,0,0
743,0.00,-0.00,-0.00,-0.00,-0.04,9.82,0,0,0
744,0.00,-0.00,-0.00,-0.07,-0.06,9.79,0,0,0
745,0.00,-0.00,-0.00,0.00,-0.02,9.84,0,0,0
746,0.00,-0.00,-0.00,0.00,-0.01,9.80,0,0,0
747,0.00,-0.00,-0.00,-0.05,-0.02,9.85,0,0,0
748,0.00,-0.00,-0.00,-0.01,-0.04,9.78,0,0,0
749,-0.00,-0.00,-0.00,-0.01,-0.04,9.86,0,0,0
750,-0.00,-0.00,-0.00,-0.03,-0.05,9.80,0,0,0
751,0.00,-0.00,-0.00,-0.03,-0.05,9.79,0,0,0
752,-0.00,-0.00,-0.00,0.01,-0.04,9.87,0,0,0
753,0.00,-0.00,-0.00,-0.02,0.01,9.72,0,0,0
754,0.00,-0.00,-0.00,0.00,-0.09,9.87,0,0,0
755,0.00,-0.00,-0.00,0.00,-0.07,9.73,0,0,0
756,-0.00,-0.00,-0.00,-0.00,-0.04,9.84,0,0,0
757,-0.00,-0.00,-0.00,-0.03,-0.01,9.80,0,0,0
758,0.00,-0.00,-0.00,0.00,-0.01,9.81,0,0,0
759,-0.00,-0.00,-0.00,-0.03,-0.04,9.80,0,0,0
760,0.00,0.00,-0.00,-0.04,0.01,9.79,0,0,0
761,0.00,-0.00,-0.00,-0.06,-0.05,9.84,0,0,0
762,0.00,-0.00,-0.00,-0.06,-0.04,9.81,0,0,0
763,0.00,-0.00,-0.00,-0.02,-0.02,9.80,0,0,0
764,0.00,-0.00,-0.00,-0.03,-0.06,9.76,0,0,0
765,-0.00,-0.00,-0.00,0.06,-0.02,9.81,0,0,0
766,0.00,-0.00,-0.00,-0.02,0.01,9.82,0,0,0
767,-0.00,-0.00,-0.00,0.00,-0.00,9.78,0,0,0
768,-0.00,-0.00,-0.00,-0.01,0.00,9.81,0,0,0
769,-0.00,-0.00,-0.00,-0.01,-0.03,9.85,0,0,0
770,0.00,-0.00,-0.00,-0.03,-0.00,9.75,0,0,0
771,0.00,-0.00,-0.01,-0.02,0.01,9.78,0,0,0
772,-0.00,-0.00,-0.00,0.00,-0.01,9.79,0,0,0
773,-0.00,-0.00,-0.01,-0.01,0.02,9.76,0,0,0
774,0.00,-0.00,-0.00,-0.00,-0.02,9.83,0,0,0
775,0.00,-0.00,-0.00,-0.03,-0.02,9.69,0,0,0
776,0.00,-0.00,-0.00,-0.03,-0.05,9.80,0,0,0
777,0.00,-0.00,-0.00,-0.07,-0.03,9.86,0,0,0
778,-0.00,-0.00,-0.00,-0.05,-0.05,9.77,0,0,0
779,0.00,0.00,-0.00,0.01,-0.00,9.74,0,0,0
780,0.00,-0.00,-0.00,0.01,-0.01,9.78,0,0,0
781,0.00,-0.00,-0.00,0.01,-0.03,9.76,0,0,0
782,0.00,-0.00,-0.00,-0.00,0.03,9.73,0,0,0
783,-0.00,-0.00,-0.00,-0.04,-0.08,9.79,0,0,0
784,-0.00,-0.00,-0.00,-0.02,-0.03,9.78,0,0,0
785,0.00,-0.01,-0.00,-0.04,0.00,9.76,0,0,0
786,0.00,-0.00,-0.00,-0.01,-0.02,9.72,0,0,0
787,0.00,-0.00,-0.00,-0.02,-0.02,9.85,0,0,0
788,0.00,-0.00,-0.00,-0.06,-0.04,9.82,0,0,0
789,0.00,-0.00,-0.00,-0.06,-0.03,9.77,0,0,0
790,0.00,-0.01,-0.00,-0.01,-0.07,9.77,0,0,0
791,0.00,-0.00,-0.00,0.01,0.03,9.85,0,0,0
792,0.00,-0.00,-0.00,-0.01,-0.03,9.79,0,0,0
793,0.00,-0.00,-0.00,-0.01,-0.03,9.77,0,0,0
794,-0.00,-0.00,-0.00,0.02,-0.04,9.82,0,0,0
795,-0.00,-0.03,0.00,-0.20,-0.02,9.82,0,0,0
796,-0.01,0.01,-0.01,0.07,0.07,9.83,0,0,0
797,0.01,0.02,-0.00,0.01,0.04,9.79,0,0,0
798,0.02,0.00,-0.01,0.09,-0.03,9.80,0,0,0
799,0.04,0.00,-0.00,-0.11,-0.12,9.84,0,0,0
800,0.17,-0.03,-0.15,-0.21,-0.36,9.86,0,0,0
801,0.08,-0.08,0.03,-0.64,0.95,11.30,0,0,0
802,-0.23,0.17,-0.19,-0.52,0.82,11.99,0,0,0
803,-0.34,0.52,-0.20,-0.24,0.25,12.00,0,0,0
804,-0.09,0.63,-0.04,-0.08,0.16,12.31,0,0,0
805,0.27,0.42,-0.19,1.45,-0.30,12.24,0,0,0
806,0.74,0.06,-0.07,2.69,-1.12,11.77,0,0,0
807,0.39,0.28,-0.44,2.20,-0.10,11.79,0,0,0
808,0.39,0.31,-0.56,2.35,-0.09,11.51,0,0,0
809,0.45,0.30,-0.66,2.31,0.01,11.42,0,0,0
810,0.53,0.27,-0.70,2.18,0.02,11.13,0,0,0
811,0.66,0.19,-0.66,1.97,0.06,10.86,0,0,0
812,0.78,0.07,-0.59,2.03,0.16,10.52,0,0,0
813,0.92,-0.13,-0.65,2.19,-0.00,10.20,0,0,0
814,0.93,-0.26,-0.69,1.71,0.20,9.89,0,0,0
815,0.93,-0.34,-0.74,1.64,0.12,9.99,0,0,0
816,0.93,-0.34,-0.79,1.65,0.08,9.96,0,0,0
817,0.91,-0.32,-0.82,1.57,0.14,9.84,0,0,0
818,0.88,-0.32,-0.86,1.54,0.10,9.63,0,0,0
819,0.90,-0.32,-0.90,1.47,-0.00,9.49,0,0,0
820,0.92,-0.35,-0.91,1.36,0.26,9.19,0,0,0
821,0.90,-0.36,-0.93,1.34,0.48,9.02,0,0,0
822,0.83,-0.38,-1.00,1.45,0.54,8.82,0,0,0
823,0.80,-0.44,-1.01,1.38,0.47,8.57,0,0,0
824,0.84,-0.51,-0.98,1.46,0.45,8.44,0,0,0
825,0.91,-0.55,-1.01,1.50,0.41,8.46,0,0,0
826,0.60,-0.30,-1.48,1.09,0.43,6.94,0,0,0
827,0.72,-0.59,-1.36,0.97,0.31,6.75,0,0,0
828,0.79,-0.68,-1.34,0.82,0.37,6.73,0,0,0
829,0.29,-0.59,-1.63,0.36,1.34,6.65,0,0,0
830,0.16,-0.53,-1.71,0.23,1.09,6.72,0,0,0
831,0.13,-0.48,-1.73,0.40,0.91,6.74,0,0,0
832,0.10,-0.52,-1.69,0.23,0.77,6.85,0,0,0
833,0.10,-0.54,-1.65,0.23,0.53,6.82,0,0,0
834,-0.16,-0.41,-1.61,-0.11,0.85,5.52,0,0,0
835,-0.33,-0.40,-1.70,-0.65,0.73,6.09,0,0,0
836,-0.31,-0.22,-1.62,-1.13,0.74,6.85,0,0,0
837,-0.43,-0.03,-1.57,-0.79,0.63,6.13,0,0,0
838,-0.48,-0.02,-1.52,-0.98,0.45,5.58,0,0,0
839,-0.55,-0.16,-1.42,-1.16,0.01,4.63,0,0,0
840,-0.62,-0.26,-1.39,-1.42,0.13,4.67,0,0,0
841,-0.74,-0.34,-1.39,-1.69,0.43,5.15,0,0,0
842,-0.85,-0.41,-1.35,-2.03,0.17,5.82,0,0,0
843,-0.77,-0.43,-1.21,-2.36,-0.34,6.67,0,0,0
844,-0.54,-0.52,-0.94,-2.68,-0.39,8.05,0,0,0
845,-0.39,-0.73,-0.82,-0.83,0.09,8.89,0,0,0
846,-0.64,-0.66,-1.16,-0.76,-0.06,9.12,0,0,0
847,-0.88,-0.50,-1.26,-1.50,-0.67,9.68,0,0,0
848,-1.05,-0.45,-1.29,-2.19,-0.65,10.02,0,0,0
849,-1.19,-0.43,-1.26,-2.57,-0.73,10.58,0,0,0
850,-1.21,-0.32,-1.06,-2.94,-0.68,12.09,0,0,0
851,-1.19,-0.27,-0.85,-2.55,-0.30,12.50,0,0,0
852,-1.17,-0.32,-0.66,-1.50,0.03,12.69,0,0,0
853,-1.17,-0.46,-0.65,-0.48,0.69,13.17,0,0,0
854,-1.00,-0.74,-0.91,-0.67,0.02,15.90,0,0,0
855,-0.52,-0.72,-0.44,-1.70,-0.31,18.65,0,0,0
856,-0.44,-0.50,-0.30,-1.49,-0.14,19.11,0,0,0
857,-0.48,-0.11,-0.18,-0.82,-0.00,19.21,0,0,0
858,-0.55,0.30,-0.26,0.63,1.20,19.47,0,0,0
859,-0.28,0.80,-0.56,1.90,1.77,18.72,0,0,0
860,0.02,0.73,-0.50,2.15,1.42,17.77,0,0,0
861,0.48,0.69,-0.37,3.31,2.02,17.09,0,0,0
862,0.57,0.76,-0.40,3.48,2.20,16.36,0,0,0
863,0.66,0.81,-0.52,3.75,2.18,15.76,0,0,0
864,0.81,0.79,-0.59,3.62,2.29,15.63,0,0,0
865,1.23,0.80,-0.73,3.44,2.35,14.79,0,0,0
866,1.32,0.97,-0.86,2.99,1.90,14.12,0,0,0
867,1.31,1.06,-1.01,2.76,1.45,13.13,0,0,0
868,1.17,1.10,-1.25,2.68,1.29,11.72,0,0,0
869,0.97,1.03,-1.44,2.50,1.17,9.96,0,0,0
870,0.83,0.92,-1.43,1.94,0.68,8.35,0,0,0
871,1.22,0.03,-1.41,-0.58,-0.80,7.75,0,0,0
872,1.13,-0.21,-1.40,-0.69,-1.03,6.63,0,0,0
873,0.91,-0.41,-1.42,-0.96,-1.23,6.22,0,0,0
874,0.45,-0.41,-1.24,-1.27,-0.97,8.03,0,0,0
875,0.45,-0.32,-1.22,-1.25,-0.81,8.04,0,0,0
876,0.47,-0.27,-1.23,-1.10,-0.75,8.00,0,0,0
877,0.47,-0.32,-1.24,-0.95,-0.78,7.55,0,0,0
878,0.77,-0.47,-1.08,-2.11,-1.33,8.30,0,0,0
879,0.76,-0.38,-0.97,-2.04,-1.24,8.27,0,0,0
880,0.74,-0.32,-0.81,-2.21,-1.23,8.01,0,0,0
881,0.55,-0.17,-0.66,-2.06,-1.31,7.55,0,0,0
882,0.33,-0.08,-0.58,-1.96,-1.10,7.10,0,0,0
883,0.13,-0.00,-0.59,-1.67,-0.71,7.34,0,0,0
884,0.04,0.11,-0.60,-1.89,-0.77,7.87,0,0,0
885,0.11,0.11,-0.52,-2.24,-0.91,8.10,0,0,0
886,0.20,0.11,-0.40,-2.32,-0.77,8.26,0,0,0
887,0.27,0.13,-0.28,-2.20,-0.71,8.18,0,0,0
888,0.31,0.14,-0.15,-1.95,-0.34,8.04,0,0,0
889,0.26,0.15,-0.10,-1.76,-0.04,7.92,0,0,0
890,0.14,0.18,-0.07,-1.38,0.01,7.55,0,0,0
891,0.02,0.20,-0.08,-1.40,0.06,7.38,0,0,0
892,-0.09,0.18,-0.06,-1.53,-0.02,7.58,0,0,0
893,-0.10,0.17,0.04,-1.51,0.02,8.05,0,0,0
894,-0.09,0.23,0.19,-1.28,0.81,8.41,0,0,0
895,-0.12,0.25,0.20,-0.91,1.04,8.24,0,0,0
896,-0.18,0.28,0.17,-0.75,1.31,8.13,0,0,0
897,-0.27,0.31,0.10,-0.58,1.38,8.22,0,0,0
898,-0.29,0.31,0.18,-0.62,1.37,8.26,0,0,0
899,-0.24,0.21,0.31,-0.80,1.25,8.16,0,0,0
900,-0.20,0.10,0.43,-0.50,1.31,8.41,0,0,0
901,-0.26,0.01,0.36,-0.27,1.52,8.62,0,0,0
902,-0.14,-0.37,0.45,0.26,1.80,10.76,0,0,0
903,-0.14,-0.33,0.41,0.48,1.81,10.84,0,0,0
904,-0.19,-0.27,0.32,0.50,1.86,10.66,0,0,0
905,-0.34,-0.13,0.14,0.64,1.91,10.53,0,0,0
906,-0.35,-0.09,0.12,0.62,1.77,10.26,0,0,0
907,-0.30,-0.15,0.10,0.13,1.62,10.21,0,0,0
908,-0.14,-0.25,0.17,0.44,1.69,10.28,0,0,0
909,-0.13,-0.24,0.06,0.57,1.94,10.46,0,0,0
910,-0.02,-0.28,-0.04,0.20,1.17,10.48,0,0,0
911,0.04,-0.30,-0.01,0.33,1.12,10.50,0,0,0
912,0.11,-0.27,0.00,0.28,1.34,10.73,0,0,0
913,0.13,-0.23,-0.03,0.41,1.60,10.43,0,0,0
914,0.08,-0.14,-0.13,0.36,1.41,10.24,0,0,0
915,0.01,-0.13,-0.10,-0.01,0.91,9.77,0,0,0
916,-0.06,-0.13,-0.10,-0.04,0.86,9.70,0,0,0
917,-0.15,-0.10,-0.10,0.01,0.82,9.76,0,0,0
918,-0.20,-0.05,-0.08,-0.11,1.03,9.95,0,0,0
919,-0.21,0.02,-0.07,-0.36,1.22,10.28,0,0,0
920,-0.20,0.24,-0.06,-0.07,1.32,9.89,0,0,0
921,-0.16,0.11,-0.10,0.23,1.06,9.63,0,0,0
922,-0.08,0.01,-0.06,0.09,1.00,10.03,0,0,0
923,0.02,-0.07,-0.02,-0.13,1.05,10.31,0,0,0
924,0.11,-0.11,0.00,-0.00,1.09,10.36,0,0,0
925,0.17,-0.16,0.02,0.11,1.02,10.02,0,0,0
926,0.17,-0.33,-0.05,0.43,0.71,9.72,0,0,0
927,0.22,-0.41,-0.02,0.48,0.82,10.10,0,0,0
928,0.23,-0.36,-0.01,0.61,1.18,10.40,0,0,0
929,0.22,-0.27,-0.02,0.60,1.10,10.41,0,0,0
930,0.22,-0.22,-0.02,0.57,1.07,10.20,0,0,0
931,0.20,-0.14,-0.02,0.58,1.10,10.18,0,0,0
932,0.15,-0.05,-0.00,0.70,1.04,10.07,0,0,0
933,0.03,0.08,-0.04,0.81,0.95,9.57,0,0,0
934,-0.01,0.10,-0.05,0.73,1.11,9.72,0,0,0
935,-0.05,0.14,-0.07,0.63,1.16,9.70,0,0,0
936,-0.06,0.16,-0.08,0.51,1.18,9.54,0,0,0
937,-0.04,0.17,-0.07,0.57,1.05,9.49,0,0,0
938,0.01,0.12,-0.05,0.54,0.86,9.08,0,0,0
939,0.06,0.05,-0.02,0.52,0.81,8.99,0,0,0
940,0.11,-0.13,0.04,0.66,0.88,8.80,0,0,0
941,0.04,-0.28,-0.01,0.61,1.30,9.52,0,0,0
942,0.06,-0.26,0.01,0.53,1.28,9.70,0,0,0
943,0.09,-0.24,0.05,0.63,1.39,9.85,0,0,0
