Packet number,Gyroscope X (deg/s),Gyroscope Y(deg/s),Gyroscope Z (deg/s),Accelerometer X (g),Accelerometer Y (g),Accelerometer Z (g),Magnetometer X (G),Magnetometer Y (G),Magnetometer Z (G)
0,-0.00,0.00,0.01,0.09,-0.17,9.79,0,0,0
1,-0.00,0.00,0.01,0.09,-0.16,9.79,0,0,0
2,-0.00,0.00,0.01,0.08,-0.14,9.80,0,0,0
3,-0.00,0.00,0.01,0.08,-0.13,9.80,0,0,0
4,-0.00,0.01,0.01,0.06,-0.11,9.81,0,0,0
5,-0.01,0.01,0.00,0.05,-0.11,9.80,0,0,0
6,-0.01,0.01,0.00,0.04,-0.10,9.79,0,0,0
7,-0.01,0.01,0.00,0.02,-0.10,9.79,0,0,0
8,-0.01,0.00,0.00,0.02,-0.11,9.79,0,0,0
9,-0.01,0.00,0.00,0.01,-0.13,9.78,0,0,0
10,-0.01,0.00,0.01,0.01,-0.15,9.76,0,0,0
11,-0.01,0.00,0.01,-0.00,-0.17,9.75,0,0,0
12,-0.01,0.00,0.01,-0.01,-0.18,9.73,0,0,0
13,-0.01,0.00,0.01,0.01,-0.21,9.71,0,0,0
14,-0.01,-0.00,0.02,0.02,-0.24,9.68,0,0,0
15,-0.01,-0.00,0.03,0.00,-0.30,9.69,0,0,0
16,-0.01,-0.00,0.02,0.03,-0.34,9.68,0,0,0
17,-0.00,0.00,0.00,0.01,-0.28,9.72,0,0,0
18,0.00,0.01,-0.01,0.02,-0.26,9.73,0,0,0
19,0.00,0.01,-0.02,-0.01,-0.18,9.73,0,0,0
20,0.00,0.01,-0.05,-0.04,-0.12,9.80,0,0,0
21,0.00,0.01,-0.06,-0.03,-0.09,9.79,0,0,0
22,-0.00,0.01,-0.07,-0.01,-0.09,9.80,0,0,0
23,-0.01,0.01,-0.07,0.03,-0.13,9.81,0,0,0
24,-0.01,0.01,-0.06,0.05,-0.18,9.76,0,0,0
25,-0.01,0.01,-0.03,0.06,-0.24,9.70,0,0,0
26,-0.00,0.00,0.00,0.06,-0.25,9.70,0,0,0
27,0.00,0.00,0.01,0.05,-0.22,9.73,0,0,0
28,0.00,0.00,0.01,0.03,-0.17,9.76,0,0,0
29,0.00,-0.00,-0.01,0.02,-0.13,9.80,0,0,0
30,0.00,-0.00,-0.01,0.00,-0.12,9.78,0,0,0
31,-0.00,-0.01,-0.01,-0.01,-0.12,9.79,0,0,0
32,-0.00,-0.01,0.00,0.01,-0.14,9.75,0,0,0
33,-0.01,-0.01,0.02,0.05,-0.17,9.71,0,0,0
34,-0.01,-0.01,0.04,0.06,-0.25,9.72,0,0,0
35,-0.00,-0.00,0.05,0.07,-0.25,9.71,0,0,0
36,-0.00,-0.00,0.04,0.01,-0.27,9.74,0,0,0
37,0.00,0.00,0.01,-0.03,-0.16,9.78,0,0,0
38,0.00,0.00,-0.01,-0.02,-0.13,9.78,0,0,0
39,0.00,0.01,-0.02,-0.04,-0.11,9.80,0,0,0
40,0.00,0.01,-0.04,-0.01,-0.13,9.79,0,0,0
41,-0.00,0.01,-0.05,0.01,-0.20,9.73,0,0,0
42,-0.00,0.01,-0.04,0.03,-0.25,9.73,0,0,0
43,-0.00,0.00,-0.03,0.04,-0.27,9.69,0,0,0
44,0.00,0.00,-0.02,0.03,-0.24,9.70,0,0,0
45,0.01,-0.00,-0.01,0.02,-0.24,9.72,0,0,0
46,0.01,-0.00,-0.01,0.02,-0.21,9.74,0,0,0
47,0.01,-0.00,-0.00,0.00,-0.18,9.76,0,0,0
48,0.01,-0.00,0.00,0.00,-0.11,9.81,0,0,0
49,0.01,-0.00,0.00,0.01,-0.09,9.81,0,0,0
50,0.00,-0.01,0.00,0.03,-0.06,9.81,0,0,0
51,-0.01,-0.01,0.01,0.04,-0.10,9.75,0,0,0
52,-0.01,-0.01,0.02,0.05,-0.21,9.74,0,0,0
53,-0.00,-0.00,0.02,0.08,-0.26,9.70,0,0,0
54,0.00,-0.00,0.00,0.09,-0.25,9.71,0,0,0
55,0.00,-0.00,-0.00,0.07,-0.23,9.70,0,0,0
56,0.01,-0.00,-0.02,0.05,-0.21,9.74,0,0,0
57,0.01,-0.00,-0.02,0.04,-0.18,9.78,0,0,0
58,0.01,-0.00,-0.02,0.01,-0.14,9.78,0,0,0
59,0.01,0.00,-0.02,0.02,-0.14,9.78,0,0,0
60,0.00,0.00,-0.01,0.02,-0.11,9.79,0,0,0
61,-0.00,0.00,-0.00,0.00,-0.14,9.80,0,0,0
62,-0.00,0.00,0.01,-0.03,-0.16,9.80,0,0,0
63,-0.00,-0.00,0.03,-0.01,-0.18,9.77,0,0,0
64,-0.00,-0.00,0.03,-0.00,-0.22,9.75,0,0,0
65,-0.00,-0.00,0.03,0.01,-0.23,9.74,0,0,0
66,0.00,-0.00,0.02,0.02,-0.22,9.75,0,0,0
67,0.00,-0.00,0.01,0.02,-0.20,9.77,0,0,0
68,0.00,0.00,-0.01,0.04,-0.19,9.74,0,0,0
69,0.00,0.00,-0.02,0.04,-0.17,9.76,0,0,0
70,0.00,0.00,-0.02,0.02,-0.18,9.75,0,0,0
71,0.00,0.00,-0.02,0.04,-0.14,9.74,0,0,0
72,0.00,0.00,-0.02,0.07,-0.16,9.76,0,0,0
73,-0.00,0.00,-0.01,0.05,-0.17,9.77,0,0,0
74,-0.00,0.00,-0.00,0.05,-0.16,9.75,0,0,0
75,-0.00,0.00,0.01,0.05,-0.17,9.74,0,0,0
76,-0.00,0.00,0.01,-0.01,-0.18,9.76,0,0,0
77,-0.00,0.00,0.02,-0.04,-0.19,9.71,0,0,0
78,-0.00,-0.00,0.03,-0.04,-0.19,9.77,0,0,0
79,-0.00,-0.00,0.03,-0.00,-0.19,9.75,0,0,0
80,0.00,0.00,0.02,0.06,-0.20,9.76,0,0,0
81,0.00,0.00,0.01,0.04,-0.21,9.77,0,0,0
82,0.00,0.00,0.01,0.06,-0.21,9.76,0,0,0
83,0.00,0.00,-0.00,0.03,-0.21,9.72,0,0,0
84,0.00,0.00,-0.01,0.04,-0.18,9.74,0,0,0
85,-0.00,0.00,-0.02,0.04,-0.15,9.74,0,0,0
86,-0.00,0.01,-0.04,0.06,-0.13,9.73,0,0,0
87,-0.00,0.01,-0.04,0.05,-0.13,9.72,0,0,0
88,0.00,0.01,-0.02,-0.00,-0.21,9.72,0,0,0
89,0.00,0.00,0.01,-0.01,-0.16,9.75,0,0,0
90,-0.00,-0.00,0.02,-0.02,-0.15,9.76,0,0,0
91,-0.00,-0.00,0.02,-0.01,-0.13,9.75,0,0,0
92,-0.00,-0.00,0.02,0.00,-0.17,9.76,0,0,0
93,-0.00,-0.00,0.01,0.02,-0.16,9.76,0,0,0
94,-0.01,-0.00,0.00,0.06,-0.17,9.73,0,0,0
95,-0.00,0.00,-0.01,0.08,-0.20,9.70,0,0,0
96,-0.00,0.00,-0.02,0.10,-0.23,9.71,0,0,0
97,-0.00,0.00,-0.02,0.09,-0.18,9.72,0,0,0
98,-0.00,0.00,-0.01,0.07,-0.16,9.74,0,0,0
99,0.00,0.01,0.01,-0.03,-0.14,9.80,0,0,0
100,0.00,0.00,0.02,-0.03,-0.15,9.78,0,0,0
101,0.00,-0.00,0.03,-0.04,-0.15,9.77,0,0,0
102,0.00,-0.01,0.04,-0.04,-0.16,9.79,0,0,0
103,-0.00,-0.01,0.05,-0.03,-0.17,9.76,0,0,0
104,-0.00,-0.01,0.05,-0.02,-0.17,9.75,0,0,0
105,-0.00,-0.01,0.04,0.00,-0.15,9.75,0,0,0
106,0.00,-0.00,0.02,0.04,-0.16,9.76,0,0,0
107,-0.00,0.00,0.01,0.03,-0.19,9.76,0,0,0
108,-0.00,0.00,0.01,0.03,-0.17,9.78,0,0,0
109,-0.00,-0.00,-0.00,0.03,-0.16,9.74,0,0,0
110,-0.00,0.00,-0.02,0.04,-0.14,9.77,0,0,0
111,-0.00,0.00,-0.04,0.06,-0.15,9.74,0,0,0
112,-0.01,0.01,-0.05,0.07,-0.16,9.78,0,0,0
113,-0.00,0.01,-0.04,0.04,-0.21,9.75,0,0,0
114,-0.00,0.01,-0.03,0.03,-0.21,9.72,0,0,0
115,-0.00,-0.00,-0.00,-0.03,-0.18,9.76,0,0,0
116,-0.00,-0.01,0.02,-0.01,-0.16,9.75,0,0,0
117,-0.00,-0.01,0.03,0.00,-0.15,9.78,0,0,0
118,-0.01,-0.01,0.03,0.00,-0.12,9.79,0,0,0
119,-0.01,-0.01,0.03,0.03,-0.14,9.76,0,0,0
120,-0.01,-0.00,0.02,0.08,-0.17,9.71,0,0,0
121,0.00,0.01,-0.02,0.04,-0.20,9.78,0,0,0
122,0.00,0.01,-0.03,0.01,-0.18,9.77,0,0,0
123,0.00,0.00,-0.02,-0.01,-0.15,9.73,0,0,0
124,0.00,-0.00,-0.01,-0.01,-0.18,9.74,0,0,0
125,0.00,0.00,-0.00,-0.01,-0.18,9.76,0,0,0
126,-0.00,-0.00,0.01,-0.00,-0.18,9.75,0,0,0
127,-0.00,-0.00,0.02,-0.00,-0.18,9.76,0,0,0
128,-0.00,0.00,0.02,0.02,-0.18,9.77,0,0,0
129,-0.00,0.00,0.01,0.01,-0.17,9.76,0,0,0
130,-0.00,0.00,0.00,0.01,-0.17,9.80,0,0,0
131,-0.00,0.01,-0.01,-0.01,-0.15,9.77,0,0,0
132,-0.00,0.01,-0.01,0.01,-0.20,9.75,0,0,0
133,0.00,0.01,-0.01,0.01,-0.19,9.73,0,0,0
134,-0.00,0.01,-0.02,0.04,-0.21,9.74,0,0,0
135,0.00,0.01,-0.03,0.05,-0.18,9.77,0,0,0
136,0.00,0.01,-0.03,0.05,-0.16,9.75,0,0,0
137,-0.00,0.01,-0.03,0.05,-0.15,9.76,0,0,0
138,-0.00,0.01,-0.03,0.04,-0.13,9.75,0,0,0
139,-0.00,0.01,-0.02,0.03,-0.14,9.76,0,0,0
140,-0.00,0.00,-0.00,-0.01,-0.17,9.75,0,0,0
141,-0.00,-0.00,0.02,-0.02,-0.18,9.74,0,0,0
142,-0.00,-0.00,0.02,0.00,-0.18,9.73,0,0,0
143,-0.00,-0.01,0.03,0.01,-0.17,9.76,0,0,0
144,-0.00,-0.00,0.02,0.03,-0.17,9.76,0,0,0
145,-0.00,-0.00,0.01,0.04,-0.17,9.76,0,0,0
146,-0.00,-0.00,0.00,0.05,-0.15,9.74,0,0,0
147,-0.00,0.00,-0.00,0.03,-0.17,9.76,0,0,0
148,-0.00,0.00,-0.00,0.03,-0.19,9.76,0,0,0
149,-0.00,0.00,0.00,0.00,-0.17,9.74,0,0,0
150,-0.00,0.00,0.01,-0.01,-0.18,9.75,0,0,0
151,-0.00,-0.00,0.01,0.02,-0.17,9.76,0,0,0
152,-0.00,-0.00,0.01,-0.00,-0.18,9.74,0,0,0
153,-0.00,-0.00,0.01,-0.01,-0.17,9.74,0,0,0
154,-0.00,-0.00,0.02,0.02,-0.20,9.76,0,0,0
155,-0.00,-0.01,0.02,0.03,-0.19,9.76,0,0,0
156,-0.00,-0.00,0.01,0.05,-0.20,9.74,0,0,0
157,-0.00,0.00,0.01,0.06,-0.19,9.73,0,0,0
158,-0.00,0.00,-0.00,0.05,-0.20,9.75,0,0,0
159,-0.00,0.00,-0.01,0.06,-0.17,9.75,0,0,0
160,-0.00,0.01,-0.02,0.03,-0.17,9.77,0,0,0
161,-0.00,0.01,-0.02,0.03,-0.15,9.78,0,0,0
162,-0.00,0.00,-0.02,0.02,-0.16,9.75,0,0,0
163,-0.00,0.00,-0.01,0.02,-0.17,9.75,0,0,0
164,-0.00,0.00,-0.00,0.01,-0.17,9.74,0,0,0
165,-0.00,-0.00,0.00,0.01,-0.17,9.73,0,0,0
166,-0.00,-0.00,0.01,0.02,-0.18,9.75,0,0,0
167,-0.00,0.00,0.00,0.03,-0.17,9.77,0,0,0
168,-0.00,0.00,-0.00,0.02,-0.18,9.75,0,0,0
169,-0.00,0.00,-0.00,0.01,-0.18,9.80,0,0,0
170,-0.00,0.00,-0.00,0.02,-0.17,9.78,0,0,0
171,-0.00,0.00,0.00,0.03,-0.17,9.77,0,0,0
172,-0.00,0.00,0.01,0.02,-0.15,9.75,0,0,0
173,-0.00,0.00,0.01,0.02,-0.16,9.77,0,0,0
174,-0.00,0.00,0.01,0.02,-0.17,9.77,0,0,0
175,-0.00,0.00,0.01,0.01,-0.16,9.74,0,0,0
176,-0.00,-0.00,0.01,0.02,-0.18,9.76,0,0,0
177,-0.00,-0.00,-0.00,0.03,-0.21,9.76,0,0,0
178,-0.00,-0.00,-0.01,0.04,-0.20,9.76,0,0,0
179,-0.00,0.00,-0.02,0.04,-0.17,9.79,0,0,0
180,0.00,0.00,-0.03,0.04,-0.15,9.78,0,0,0
181,0.00,-0.00,-0.02,0.01,-0.17,9.77,0,0,0
182,-0.00,-0.00,-0.01,-0.00,-0.14,9.79,0,0,0
183,-0.00,-0.01,0.01,-0.00,-0.17,9.75,0,0,0
184,-0.01,-0.01,0.02,-0.00,-0.16,9.74,0,0,0
185,-0.01,-0.01,0.03,0.02,-0.17,9.75,0,0,0
186,-0.00,-0.01,0.04,0.03,-0.17,9.74,0,0,0
187,-0.00,0.01,-0.02,0.02,-0.18,9.74,0,0,0
188,-0.00,0.00,-0.01,-0.01,-0.14,9.77,0,0,0
189,-0.00,-0.00,-0.00,-0.00,-0.14,9.78,0,0,0
190,-0.00,-0.00,0.00,0.02,-0.15,9.75,0,0,0
191,-0.00,-0.00,0.01,0.05,-0.19,9.77,0,0,0
192,-0.00,-0.00,0.01,0.06,-0.18,9.76,0,0,0
193,-0.00,0.00,0.01,0.04,-0.19,9.76,0,0,0
194,-0.00,0.00,0.01,0.04,-0.17,9.74,0,0,0
195,-0.00,0.00,0.01,0.03,-0.17,9.74,0,0,0
196,-0.00,-0.00,0.00,0.02,-0.18,9.73,0,0,0
197,-0.00,0.00,-0.00,0.02,-0.20,9.74,0,0,0
198,0.00,0.00,-0.01,0.04,-0.18,9.75,0,0,0
199,0.00,0.01,-0.02,0.03,-0.17,9.72,0,0,0
200,0.00,0.01,-0.01,0.05,-0.17,9.74,0,0,0
201,0.00,0.01,-0.01,0.05,-0.17,9.74,0,0,0
202,-0.00,0.00,-0.01,0.02,-0.19,9.74,0,0,0
203,-0.00,0.00,-0.01,0.03,-0.17,9.74,0,0,0
204,-0.00,0.00,-0.00,0.04,-0.17,9.75,0,0,0
205,-0.00,0.00,0.00,0.02,-0.19,9.76,0,0,0
206,-0.00,0.00,0.00,0.03,-0.19,9.76,0,0,0
207,-0.00,0.00,0.01,0.00,-0.18,9.74,0,0,0
208,-0.00,0.00,0.01,0.02,-0.19,9.76,0,0,0
209,-0.00,0.00,0.01,0.02,-0.18,9.76,0,0,0
210,-0.00,-0.00,0.01,0.03,-0.17,9.74,0,0,0
211,-0.00,0.00,0.00,0.01,-0.19,9.76,0,0,0
212,-0.00,0.00,-0.00,0.02,-0.17,9.78,0,0,0
213,0.00,0.00,-0.01,0.02,-0.18,9.78,0,0,0
214,0.00,0.00,-0.01,0.04,-0.16,9.76,0,0,0
215,0.00,0.00,-0.01,0.04,-0.16,9.77,0,0,0
216,-0.00,0.00,-0.01,0.03,-0.17,9.77,0,0,0
217,-0.00,0.00,-0.01,0.03,-0.17,9.74,0,0,0
218,-0.00,0.00,-0.01,0.03,-0.17,9.77,0,0,0
219,-0.00,0.00,-0.01,0.03,-0.16,9.79,0,0,0
220,0.00,0.00,-0.00,0.02,-0.15,9.74,0,0,0
221,0.00,0.00,-0.00,0.03,-0.15,9.78,0,0,0
222,-0.00,-0.00,0.01,0.02,-0.16,9.77,0,0,0
223,-0.00,-0.00,0.01,0.03,-0.16,9.76,0,0,0
224,-0.00,-0.00,0.01,0.02,-0.15,9.76,0,0,0
225,-0.00,-0.00,0.01,0.02,-0.17,9.76,0,0,0
226,-0.00,-0.00,0.01,0.02,-0.19,9.74,0,0,0
227,-0.00,-0.00,0.01,0.03,-0.18,9.74,0,0,0
228,-0.00,-0.00,0.00,0.02,-0.18,9.73,0,0,0
229,0.00,0.00,-0.00,0.02,-0.17,9.73,0,0,0
230,0.00,0.00,-0.00,0.03,-0.16,9.73,0,0,0
231,-0.00,0.00,-0.00,0.01,-0.18,9.76,0,0,0
232,-0.00,-0.00,-0.01,0.02,-0.17,9.74,0,0,0
233,-0.00,-0.00,-0.01,0.03,-0.17,9.76,0,0,0
234,-0.00,0.00,-0.01,0.03,-0.18,9.73,0,0,0
235,-0.00,0.00,-0.01,0.03,-0.19,9.75,0,0,0
236,-0.00,0.00,-0.01,0.04,-0.17,9.78,0,0,0
237,-0.00,0.00,-0.01,0.03,-0.16,9.76,0,0,0
238,-0.00,0.00,-0.01,0.03,-0.17,9.76,0,0,0
239,-0.00,0.00,-0.01,0.01,-0.17,9.74,0,0,0
240,-0.00,0.00,-0.01,0.03,-0.18,9.73,0,0,0
241,-0.00,0.00,-0.00,0.03,-0.17,9.74,0,0,0
242,-0.00,0.00,-0.00,0.02,-0.17,9.75,0,0,0
243,-0.00,0.00,-0.00,0.03,-0.17,9.74,0,0,0
244,-0.00,0.00,-0.01,0.04,-0.17,9.77,0,0,0
245,-0.00,0.00,-0.01,0.03,-0.16,9.77,0,0,0
246,-0.00,0.00,-0.01,0.03,-0.17,9.76,0,0,0
247,-0.00,0.00,-0.01,0.04,-0.18,9.72,0,0,0
248,-0.00,0.00,-0.00,0.05,-0.18,9.76,0,0,0
249,-0.00,0.00,0.00,0.04,-0.17,9.73,0,0,0
250,-0.00,0.00,0.00,0.02,-0.16,9.74,0,0,0
251,-0.00,0.00,0.00,0.01,-0.18,9.73,0,0,0
252,-0.00,-0.00,0.01,-0.00,-0.17,9.76,0,0,0
253,-0.00,-0.00,0.01,0.01,-0.17,9.77,0,0,0
254,-0.00,-0.00,0.01,0.03,-0.17,9.75,0,0,0
255,-0.00,0.00,-0.00,0.04,-0.18,9.74,0,0,0
256,-0.00,0.00,-0.01,0.04,-0.20,9.73,0,0,0
257,-0.00,0.00,-0.01,0.03,-0.18,9.74,0,0,0
258,-0.00,0.00,-0.01,0.00,-0.17,9.73,0,0,0
259,-0.00,0.01,-0.01,0.01,-0.18,9.74,0,0,0
260,-0.00,0.01,-0.01,0.01,-0.17,9.75,0,0,0
261,-0.00,0.01,-0.01,0.01,-0.16,9.76,0,0,0
262,-0.00,0.00,-0.01,-0.00,-0.17,9.75,0,0,0
263,-0.00,0.00,-0.00,0.02,-0.16,9.73,0,0,0
264,-0.00,0.00,0.00,0.03,-0.16,9.75,0,0,0
265,-0.00,0.00,0.01,0.02,-0.17,9.75,0,0,0
266,-0.00,0.00,0.00,0.03,-0.17,9.76,0,0,0
267,-0.00,0.00,-0.00,0.03,-0.17,9.77,0,0,0
268,-0.00,0.00,-0.00,0.02,-0.18,9.75,0,0,0
269,-0.00,0.00,-0.00,0.03,-0.17,9.73,0,0,0
270,-0.00,0.00,-0.01,0.03,-0.20,9.72,0,0,0
271,0.00,0.01,-0.01,0.03,-0.19,9.75,0,0,0
272,0.00,0.01,-0.01,0.03,-0.16,9.75,0,0,0
273,0.00,0.01,-0.01,0.03,-0.16,9.76,0,0,0
274,-0.00,0.01,-0.01,0.02,-0.16,9.78,0,0,0
275,-0.00,0.01,-0.01,0.02,-0.16,9.80,0,0,0
276,-0.00,0.00,-0.01,0.02,-0.18,9.77,0,0,0
277,-0.00,0.01,-0.00,0.03,-0.16,9.77,0,0,0
278,-0.00,0.00,-0.00,0.01,-0.18,9.76,0,0,0
279,-0.00,0.00,-0.00,0.02,-0.18,9.79,0,0,0
280,-0.00,-0.00,-0.01,0.03,-0.18,9.77,0,0,0
281,-0.00,-0.00,-0.02,0.02,-0.19,9.71,0,0,0
282,0.00,-0.00,-0.02,0.02,-0.18,9.72,0,0,0
283,0.00,-0.00,-0.02,0.01,-0.17,9.73,0,0,0
284,0.00,-0.00,-0.02,0.01,-0.17,9.75,0,0,0
285,0.00,0.00,-0.02,0.03,-0.17,9.74,0,0,0
286,-0.00,0.00,-0.01,0.04,-0.17,9.75,0,0,0
287,-0.00,0.00,-0.00,0.04,-0.18,9.77,0,0,0
288,-0.00,0.00,0.00,0.03,-0.17,9.74,0,0,0
289,-0.00,0.00,0.01,0.04,-0.16,9.76,0,0,0
290,-0.00,0.00,0.01,0.03,-0.16,9.76,0,0,0
291,-0.00,0.00,0.01,0.00,-0.17,9.74,0,0,0
292,-0.00,0.01,0.00,0.03,-0.18,9.73,0,0,0
293,-0.00,0.01,-0.00,0.02,-0.18,9.75,0,0,0
294,-0.00,0.01,-0.01,0.02,-0.19,9.77,0,0,0
295,-0.00,0.00,-0.02,0.02,-0.19,9.76,0,0,0
296,-0.00,0.00,-0.02,0.02,-0.18,9.76,0,0,0
297,-0.00,0.00,-0.02,0.01,-0.17,9.76,0,0,0
298,-0.00,0.00,-0.01,0.01,-0.15,9.79,0,0,0
299,-0.00,0.00,-0.01,0.01,-0.16,9.77,0,0,0
300,-0.00,-0.00,0.01,0.01,-0.17,9.76,0,0,0
301,-0.01,-0.00,0.01,0.02,-0.17,9.73,0,0,0
302,-0.01,-0.00,0.01,0.03,-0.18,9.74,0,0,0
303,-0.00,-0.00,0.00,0.05,-0.20,9.76,0,0,0
304,-0.00,0.00,-0.01,0.03,-0.21,9.73,0,0,0
305,0.00,0.00,-0.01,0.02,-0.19,9.75,0,0,0
306,-0.00,0.00,-0.01,0.02,-0.18,9.78,0,0,0
307,-0.00,0.00,-0.01,0.02,-0.16,9.77,0,0,0
308,-0.00,0.00,-0.01,0.05,-0.17,9.77,0,0,0
309,-0.00,0.00,-0.01,0.03,-0.18,9.76,0,0,0
310,0.00,0.01,-0.02,0.02,-0.18,9.79,0,0,0
311,0.00,0.01,-0.02,0.02,-0.18,9.79,0,0,0
312,-0.00,0.01,-0.02,0.01,-0.18,9.74,0,0,0
313,-0.00,0.00,-0.01,0.02,-0.15,9.76,0,0,0
314,-0.00,-0.00,-0.01,0.03,-0.17,9.72,0,0,0
315,-0.01,-0.00,-0.00,0.01,-0.16,9.74,0,0,0
316,-0.01,-0.00,0.00,0.03,-0.18,9.74,0,0,0
317,-0.00,0.00,0.00,0.04,-0.17,9.75,0,0,0
318,-0.00,0.00,0.00,0.03,-0.16,9.74,0,0,0
319,-0.00,0.00,0.00,0.02,-0.17,9.74,0,0,0
320,-0.00,0.01,-0.00,0.02,-0.18,9.77,0,0,0
321,-0.00,0.01,-0.01,0.02,-0.18,9.77,0,0,0
322,-0.00,0.01,-0.01,0.03,-0.19,9.78,0,0,0
323,-0.00,0.00,-0.02,0.02,-0.17,9.75,0,0,0
324,-0.00,0.00,-0.02,0.02,-0.18,9.73,0,0,0
325,-0.00,0.00,-0.02,0.02,-0.17,9.77,0,0,0
326,-0.00,0.01,-0.02,0.00,-0.17,9.77,0,0,0
327,-0.00,0.00,-0.01,0.02,-0.17,9.74,0,0,0
328,-0.00,0.00,-0.01,0.03,-0.18,9.75,0,0,0
329,-0.00,0.00,-0.01,0.03,-0.19,9.76,0,0,0
330,-0.00,0.00,-0.00,0.03,-0.18,9.75,0,0,0
331,-0.00,0.00,-0.00,0.02,-0.17,9.77,0,0,0
332,-0.00,0.00,-0.01,0.02,-0.17,9.73,0,0,0
333,-0.00,0.00,-0.01,0.03,-0.17,9.77,0,0,0
334,-0.00,0.00,-0.01,0.01,-0.17,9.78,0,0,0
335,-0.00,0.00,-0.00,0.02,-0.17,9.76,0,0,0
336,-0.00,0.00,0.01,-0.01,-0.16,9.76,0,0,0
337,-0.00,-0.00,0.01,0.00,-0.16,9.75,0,0,0
338,-0.00,-0.00,0.00,-0.00,-0.19,9.75,0,0,0
339,-0.00,0.00,-0.00,0.01,-0.18,9.76,0,0,0
340,-0.00,0.00,-0.01,0.01,-0.19,9.73,0,0,0
341,-0.00,0.00,-0.01,0.01,-0.18,9.74,0,0,0
342,-0.00,0.00,-0.01,0.01,-0.17,9.75,0,0,0
343,-0.00,0.00,-0.02,0.02,-0.18,9.76,0,0,0
344,-0.01,0.00,-0.02,0.02,-0.18,9.77,0,0,0
345,-0.01,0.00,-0.01,0.02,-0.18,9.77,0,0,0
346,-0.01,0.00,-0.01,0.02,-0.17,9.76,0,0,0
347,-0.01,0.00,-0.01,0.01,-0.18,9.76,0,0,0
348,-0.00,0.00,-0.01,0.03,-0.18,9.78,0,0,0
349,-0.00,0.00,-0.01,0.01,-0.17,9.75,0,0,0
350,-0.00,0.01,-0.01,0.04,-0.16,9.78,0,0,0
351,-0.00,0.01,-0.02,0.01,-0.15,9.78,0,0,0
352,-0.00,0.01,-0.02,0.00,-0.14,9.76,0,0,0
353,-0.00,0.01,-0.01,0.01,-0.15,9.74,0,0,0
354,-0.00,0.00,-0.01,0.01,-0.18,9.73,0,0,0
355,-0.00,0.00,-0.01,-0.00,-0.17,9.74,0,0,0
356,-0.00,0.00,-0.01,-0.00,-0.19,9.73,0,0,0
357,-0.00,0.00,-0.01,0.01,-0.18,9.74,0,0,0
358,-0.00,0.00,-0.01,0.01,-0.17,9.75,0,0,0
359,-0.00,0.00,-0.01,0.02,-0.18,9.76,0,0,0
360,-0.00,0.00,-0.00,0.02,-0.17,9.75,0,0,0
361,-0.00,0.00,-0.00,0.02,-0.17,9.76,0,0,0
362,-0.00,0.00,-0.00,0.02,-0.17,9.76,0,0,0
363,-0.00,0.00,0.00,0.01,-0.18,9.75,0,0,0
364,-0.00,0.00,0.00,0.02,-0.18,9.75,0,0,0
365,-0.00,0.00,-0.00,0.01,-0.18,9.75,0,0,0
366,-0.00,-0.00,-0.00,0.00,-0.17,9.75,0,0,0
367,-0.00,-0.00,-0.01,0.00,-0.17,9.74,0,0,0
368,-0.00,-0.00,-0.01,0.03,-0.19,9.74,0,0,0
369,-0.00,0.00,-0.01,0.04,-0.18,9.74,0,0,0
370,-0.00,0.00,-0.01,0.03,-0.19,9.73,0,0,0
371,0.00,0.00,-0.01,0.03,-0.17,9.73,0,0,0
372,0.00,0.00,-0.01,0.01,-0.17,9.73,0,0,0
373,-0.00,0.00,-0.01,0.02,-0.17,9.73,0,0,0
374,-0.00,0.00,-0.01,0.01,-0.17,9.74,0,0,0
375,-0.00,0.00,-0.01,0.00,-0.17,9.74,0,0,0
376,-0.00,0.00,-0.01,-0.00,-0.18,9.75,0,0,0
377,-0.00,0.00,-0.01,-0.00,-0.16,9.76,0,0,0
378,-0.00,-0.00,-0.00,0.00,-0.18,9.77,0,0,0
379,-0.00,0.00,-0.00,0.00,-0.20,9.75,0,0,0
380,-0.00,0.00,-0.00,0.01,-0.19,9.75,0,0,0
381,-0.00,0.00,-0.00,0.00,-0.18,9.76,0,0,0
382,-0.00,0.01,-0.00,0.01,-0.19,9.75,0,0,0
383,-0.00,0.00,0.00,-0.00,-0.19,9.75,0,0,0
384,-0.00,0.00,0.00,0.00,-0.19,9.75,0,0,0
385,-0.00,0.00,0.00,-0.00,-0.20,9.75,0,0,0
386,-0.00,0.01,0.00,0.02,-0.18,9.74,0,0,0
387,-0.00,0.01,-0.00,0.02,-0.18,9.75,0,0,0
388,-0.00,0.00,-0.00,0.01,-0.18,9.75,0,0,0
389,-0.00,0.00,-0.00,-0.01,-0.18,9.76,0,0,0
390,-0.00,-0.00,-0.01,0.01,-0.17,9.75,0,0,0
391,-0.00,-0.00,-0.01,0.01,-0.18,9.76,0,0,0
392,0.00,-0.00,-0.02,0.03,-0.18,9.75,0,0,0
393,0.00,-0.00,-0.02,0.03,-0.18,9.73,0,0,0
394,-0.00,-0.00,-0.02,0.03,-0.18,9.75,0,0,0
395,-0.00,-0.00,-0.01,0.01,-0.18,9.76,0,0,0
396,-0.00,-0.00,0.00,0.02,-0.18,9.74,0,0,0
397,-0.00,-0.00,0.01,0.02,-0.16,9.75,0,0,0
398,-0.00,-0.00,0.01,0.00,-0.17,9.73,0,0,0
399,-0.00,-0.00,0.02,0.01,-0.18,9.74,0,0,0
400,-0.00,-0.00,0.02,0.00,-0.17,9.76,0,0,0
401,-0.00,-0.00,0.01,0.00,-0.19,9.80,0,0,0
402,-0.00,-0.00,0.01,-0.01,-0.19,9.79,0,0,0
403,-0.00,-0.00,0.01,-0.00,-0.18,9.76,0,0,0
404,-0.00,-0.00,0.00,0.01,-0.17,9.75,0,0,0
405,-0.00,-0.00,-0.01,0.02,-0.19,9.76,0,0,0
406,-0.00,-0.00,-0.01,0.04,-0.19,9.75,0,0,0
407,-0.00,0.00,-0.01,0.04,-0.18,9.74,0,0,0
408,-0.00,0.00,-0.00,0.02,-0.17,9.73,0,0,0
409,-0.00,0.00,0.01,0.03,-0.18,9.75,0,0,0
410,-0.00,0.01,0.01,0.01,-0.16,9.75,0,0,0
411,-0.00,0.00,0.01,-0.01,-0.17,9.75,0,0,0
412,-0.00,0.00,0.01,0.00,-0.15,9.76,0,0,0
413,-0.00,0.00,0.01,0.02,-0.15,9.75,0,0,0
414,-0.00,0.00,0.00,0.01,-0.15,9.77,0,0,0
415,0.00,0.00,0.00,-0.01,-0.16,9.78,0,0,0
416,-0.00,0.00,-0.00,0.00,-0.17,9.76,0,0,0
417,-0.00,0.00,-0.00,0.01,-0.18,9.74,0,0,0
418,-0.00,0.00,-0.01,0.02,-0.17,9.74,0,0,0
419,-0.00,0.00,-0.01,-0.01,-0.17,9.74,0,0,0
420,0.00,0.01,-0.01,-0.00,-0.19,9.74,0,0,0
421,-0.00,0.00,-0.01,0.01,-0.17,9.78,0,0,0
422,0.00,0.00,0.01,-0.00,-0.21,9.77,0,0,0
423,0.00,-0.00,-0.00,0.01,-0.19,9.74,0,0,0
424,-0.00,-0.00,-0.00,0.02,-0.17,9.75,0,0,0
425,-0.00,0.00,-0.00,0.01,-0.16,9.76,0,0,0
426,-0.00,0.00,-0.01,0.02,-0.18,9.77,0,0,0
427,-0.00,0.00,-0.01,0.03,-0.17,9.79,0,0,0
428,-0.00,0.00,-0.01,0.02,-0.20,9.79,0,0,0
429,-0.00,0.00,-0.00,0.02,-0.17,9.79,0,0,0
430,-0.00,0.00,0.00,0.02,-0.19,9.76,0,0,0
431,-0.00,0.00,0.00,0.01,-0.21,9.75,0,0,0
432,-0.00,-0.00,0.01,-0.00,-0.18,9.74,0,0,0
433,0.00,-0.00,0.01,0.01,-0.20,9.72,0,0,0
434,-0.00,-0.00,0.01,0.00,-0.20,9.76,0,0,0
435,-0.00,-0.00,0.01,-0.00,-0.20,9.75,0,0,0
436,0.00,-0.00,0.01,-0.01,-0.19,9.76,0,0,0
437,-0.00,0.00,0.01,0.02,-0.17,9.76,0,0,0
438,-0.00,0.00,0.01,0.01,-0.17,9.78,0,0,0
439,-0.00,-0.00,0.01,-0.00,-0.18,9.76,0,0,0
440,-0.00,-0.00,0.00,0.01,-0.18,9.75,0,0,0
441,-0.00,-0.00,0.00,0.02,-0.17,9.75,0,0,0
442,-0.00,0.00,-0.00,0.01,-0.18,9.74,0,0,0
443,-0.00,0.00,-0.00,0.01,-0.17,9.73,0,0,0
444,-0.00,0.00,-0.00,0.01,-0.19,9.73,0,0,0
445,-0.00,0.00,-0.01,-0.00,-0.18,9.77,0,0,0
446,-0.00,0.01,-0.01,0.04,-0.17,9.78,0,0,0
447,-0.00,0.01,-0.01,-0.00,-0.16,9.76,0,0,0
448,-0.00,0.00,-0.01,0.01,-0.18,9.75,0,0,0
449,-0.00,0.00,-0.00,0.02,-0.17,9.76,0,0,0
450,-0.00,-0.00,0.00,-0.00,-0.17,9.77,0,0,0
451,-0.00,-0.00,0.01,0.01,-0.18,9.77,0,0,0
452,-0.00,-0.00,0.01,0.00,-0.20,9.73,0,0,0
453,-0.00,-0.00,0.01,0.02,-0.19,9.74,0,0,0
454,-0.00,-0.00,0.00,0.02,-0.17,9.74,0,0,0
455,-0.00,0.00,0.00,0.01,-0.17,9.77,0,0,0
456,-0.00,0.00,-0.00,0.01,-0.18,9.74,0,0,0
457,-0.00,0.00,0.00,0.01,-0.19,9.75,0,0,0
458,-0.00,-0.00,0.00,0.02,-0.17,9.74,0,0,0
459,-0.00,-0.00,0.00,0.01,-0.16,9.73,0,0,0
460,-0.00,0.00,0.00,0.01,-0.17,9.73,0,0,0
461,-0.00,0.00,0.01,0.01,-0.16,9.73,0,0,0
462,-0.00,0.00,0.00,-0.01,-0.18,9.72,0,0,0
463,-0.00,-0.00,-0.01,0.01,-0.20,9.77,0,0,0
464,-0.00,-0.00,-0.01,-0.00,-0.19,9.78,0,0,0
465,-0.00,-0.00,-0.01,0.02,-0.18,9.76,0,0,0
466,0.00,-0.00,-0.02,0.02,-0.17,9.77,0,0,0
467,0.00,-0.00,-0.02,0.02,-0.17,9.76,0,0,0
468,0.00,0.00,-0.01,0.03,-0.17,9.76,0,0,0
469,-0.00,0.00,-0.01,0.02,-0.16,9.78,0,0,0
470,0.00,0.00,-0.00,0.00,-0.15,9.78,0,0,0
471,-0.00,-0.00,0.01,0.01,-0.18,9.74,0,0,0
472,-0.00,-0.00,0.01,0.02,-0.20,9.74,0,0,0
473,-0.00,-0.00,0.01,0.00,-0.17,9.74,0,0,0
474,-0.00,-0.00,0.01,0.01,-0.20,9.74,0,0,0
475,-0.00,0.00,-0.00,0.00,-0.18,9.75,0,0,0
476,-0.00,0.00,-0.01,0.01,-0.18,9.73,0,0,0
477,-0.00,0.00,-0.01,-0.00,-0.19,9.73,0,0,0
478,-0.00,0.00,-0.01,0.01,-0.17,9.75,0,0,0
479,-0.00,0.00,-0.02,-0.00,-0.18,9.77,0,0,0
480,-0.00,0.00,-0.01,0.02,-0.18,9.74,0,0,0
481,-0.00,-0.00,-0.01,0.01,-0.18,9.73,0,0,0
482,-0.00,-0.00,-0.01,0.01,-0.17,9.72,0,0,0
483,-0.00,-0.00,0.00,0.01,-0.17,9.73,0,0,0
484,-0.00,-0.00,0.01,0.02,-0.17,9.75,0,0,0
485,-0.00,-0.00,0.01,0.01,-0.18,9.75,0,0,0
486,-0.00,-0.00,0.01,0.02,-0.17,9.75,0,0,0
487,-0.00,-0.00,0.01,0.02,-0.18,9.75,0,0,0
488,-0.00,-0.00,0.01,0.02,-0.18,9.74,0,0,0
489,-0.00,-0.00,0.01,0.02,-0.17,9.76,0,0,0
490,-0.00,-0.00,0.01,0.01,-0.18,9.74,0,0,0
491,-0.00,-0.00,0.00,0.03,-0.17,9.76,0,0,0
492,-0.00,-0.00,-0.00,0.02,-0.17,9.75,0,0,0
493,-0.00,0.00,-0.01,-0.00,-0.19,9.76,0,0,0
494,-0.00,0.00,-0.01,-0.00,-0.19,9.73,0,0,0
495,-0.00,0.00,-0.01,0.00,-0.17,9.74,0,0,0
496,-0.00,0.00,-0.01,0.01,-0.17,9.76,0,0,0
497,-0.00,0.00,-0.01,-0.01,-0.17,9.75,0,0,0
498,-0.00,-0.00,-0.00,0.02,-0.18,9.75,0,0,0
499,-0.00,-0.00,-0.00,0.02,-0.17,9.75,0,0,0
500,-0.00,0.00,-0.00,0.02,-0.17,9.77,0,0,0
501,-0.00,-0.00,-0.00,0.01,-0.17,9.77,0,0,0
502,-0.00,0.00,-0.00,0.01,-0.19,9.74,0,0,0
503,-0.00,0.00,-0.00,0.02,-0.18,9.73,0,0,0
504,-0.00,0.00,-0.01,0.00,-0.18,9.76,0,0,0
505,-0.00,0.00,-0.01,-0.00,-0.18,9.75,0,0,0
506,-0.00,0.00,-0.01,0.01,-0.17,9.73,0,0,0
507,0.00,0.00,-0.01,0.01,-0.18,9.73,0,0,0
508,-0.00,0.00,-0.01,-0.00,-0.19,9.73,0,0,0
509,-0.00,0.00,-0.01,0.02,-0.17,9.75,0,0,0
510,-0.00,0.00,-0.00,-0.00,-0.19,9.77,0,0,0
511,-0.00,-0.00,-0.00,0.03,-0.16,9.75,0,0,0
512,-0.00,-0.00,-0.00,0.01,-0.16,9.76,0,0,0
513,-0.00,-0.00,0.00,0.00,-0.16,9.73,0,0,0
514,-0.00,-0.00,0.00,-0.00,-0.18,9.75,0,0,0
515,-0.00,-0.00,0.00,0.01,-0.18,9.74,0,0,0
516,-0.00,0.00,0.01,0.01,-0.19,9.73,0,0,0
517,-0.00,-0.00,0.01,0.00,-0.17,9.75,0,0,0
518,-0.00,0.00,0.01,-0.00,-0.17,9.73,0,0,0
519,-0.00,0.00,0.00,0.01,-0.18,9.75,0,0,0
520,-0.00,0.00,-0.00,-0.02,-0.19,9.77,0,0,0
521,-0.00,0.00,-0.01,0.00,-0.19,9.73,0,0,0
522,-0.00,-0.00,-0.01,0.02,-0.19,9.76,0,0,0
523,-0.00,0.00,-0.01,0.02,-0.18,9.76,0,0,0
524,-0.00,0.00,-0.01,0.01,-0.19,9.76,0,0,0
525,-0.00,0.00,-0.01,0.01,-0.19,9.75,0,0,0
526,-0.00,0.00,-0.01,0.01,-0.20,9.75,0,0,0
527,-0.00,0.00,-0.01,0.01,-0.20,9.74,0,0,0
528,-0.00,0.00,-0.01,0.01,-0.17,9.75,0,0,0
529,-0.00,0.00,-0.01,0.02,-0.17,9.76,0,0,0
530,-0.00,0.00,-0.01,0.01,-0.18,9.77,0,0,0
531,-0.00,0.00,-0.01,0.01,-0.17,9.77,0,0,0
532,-0.00,0.01,-0.01,0.02,-0.18,9.75,0,0,0
533,-0.00,0.00,-0.01,-0.00,-0.17,9.75,0,0,0
534,-0.00,-0.00,-0.01,0.00,-0.17,9.76,0,0,0
535,-0.00,-0.00,-0.00,0.02,-0.17,9.73,0,0,0
536,-0.00,0.00,-0.00,0.02,-0.18,9.74,0,0,0
537,-0.00,0.00,-0.00,0.02,-0.17,9.76,0,0,0
538,-0.00,0.00,-0.00,0.02,-0.17,9.74,0,0,0
539,-0.00,0.00,0.00,-0.01,-0.19,9.76,0,0,0
540,-0.00,0.00,0.00,0.01,-0.16,9.75,0,0,0
541,-0.00,-0.00,0.01,-0.00,-0.16,9.75,0,0,0
542,-0.00,-0.00,0.01,0.03,-0.15,9.76,0,0,0
543,-0.00,-0.00,0.01,0.02,-0.18,9.75,0,0,0
544,-0.00,-0.00,0.01,0.01,-0.17,9.74,0,0,0
545,-0.00,-0.00,0.01,0.00,-0.19,9.75,0,0,0
546,-0.00,0.00,-0.00,0.00,-0.18,9.74,0,0,0
547,-0.00,0.00,-0.01,0.00,-0.18,9.75,0,0,0
548,-0.00,0.00,-0.00,0.01,-0.18,9.77,0,0,0
549,-0.00,0.00,-0.00,0.03,-0.18,9.76,0,0,0
550,-0.00,0.00,-0.00,0.03,-0.19,9.75,0,0,0
551,-0.00,0.01,-0.01,0.02,-0.18,9.75,0,0,0
552,-0.00,0.01,-0.00,0.01,-0.17,9.77,0,0,0
553,-0.00,0.01,-0.01,0.01,-0.17,9.76,0,0,0
554,-0.00,0.00,-0.01,0.01,-0.16,9.75,0,0,0
555,-0.00,-0.00,-0.01,-0.00,-0.17,9.77,0,0,0
556,-0.00,-0.00,-0.01,0.02,-0.20,9.74,0,0,0
557,-0.00,-0.00,-0.01,0.02,-0.18,9.75,0,0,0
558,0.00,-0.00,-0.00,-0.00,-0.18,9.76,0,0,0
559,-0.00,-0.00,0.01,-0.01,-0.18,9.78,0,0,0
560,-0.00,-0.00,0.01,-0.02,-0.17,9.77,0,0,0
561,-0.00,-0.00,0.01,0.01,-0.17,9.74,0,0,0
562,-0.00,-0.00,0.01,0.02,-0.17,9.77,0,0,0
563,-0.00,-0.00,0.01,0.02,-0.17,9.76,0,0,0
564,-0.00,0.00,0.01,0.01,-0.19,9.78,0,0,0
565,-0.00,0.00,0.01,0.03,-0.19,9.75,0,0,0
566,0.00,0.00,-0.00,0.02,-0.21,9.77,0,0,0
567,0.00,0.00,-0.01,0.01,-0.20,9.78,0,0,0
568,0.00,0.00,-0.01,0.00,-0.17,9.74,0,0,0
569,-0.00,0.00,-0.01,0.01,-0.15,9.76,0,0,0
570,-0.00,-0.00,-0.01,0.02,-0.16,9.76,0,0,0
571,-0.00,-0.00,-0.00,0.01,-0.17,9.77,0,0,0
572,-0.00,-0.00,0.01,0.01,-0.15,9.74,0,0,0
573,-0.00,-0.00,0.01,0.02,-0.17,9.75,0,0,0
574,-0.00,0.00,0.01,0.04,-0.17,9.73,0,0,0
575,-0.00,-0.00,0.00,-0.00,-0.18,9.74,0,0,0
576,-0.00,-0.00,0.00,0.02,-0.19,9.73,0,0,0
577,-0.00,-0.00,0.01,0.01,-0.20,9.75,0,0,0
578,-0.00,0.00,0.01,0.01,-0.18,9.74,0,0,0
579,-0.00,0.00,0.00,0.01,-0.17,9.75,0,0,0
580,-0.00,0.00,-0.00,0.03,-0.19,9.78,0,0,0
581,-0.00,0.00,-0.01,0.03,-0.19,9.76,0,0,0
582,-0.00,-0.00,-0.02,0.00,-0.14,9.77,0,0,0
583,-0.00,-0.00,-0.01,-0.00,-0.15,9.77,0,0,0
584,-0.00,-0.00,-0.01,-0.01,-0.15,9.74,0,0,0
585,-0.00,-0.00,-0.00,0.01,-0.16,9.73,0,0,0
586,-0.00,0.00,0.00,0.02,-0.16,9.74,0,0,0
587,-0.00,0.00,0.01,0.02,-0.16,9.75,0,0,0
588,-0.00,0.01,0.01,0.02,-0.18,9.73,0,0,0
589,-0.00,0.01,0.01,0.02,-0.17,9.77,0,0,0
590,-0.00,0.01,0.00,0.01,-0.17,9.76,0,0,0
591,-0.00,0.01,-0.01,0.03,-0.18,9.75,0,0,0
592,-0.00,0.01,-0.01,0.02,-0.18,9.76,0,0,0
593,-0.00,0.00,-0.03,0.02,-0.17,9.77,0,0,0
594,-0.00,0.00,-0.03,0.02,-0.15,9.77,0,0,0
595,0.00,0.00,-0.03,0.02,-0.15,9.74,0,0,0
596,-0.00,0.00,-0.01,0.01,-0.16,9.74,0,0,0
597,-0.00,0.00,-0.01,0.01,-0.17,9.76,0,0,0
598,-0.00,0.00,0.00,0.02,-0.17,9.75,0,0,0
599,-0.00,0.00,0.01,0.01,-0.18,9.75,0,0,0
600,-0.00,-0.00,0.01,0.01,-0.18,9.76,0,0,0
601,-0.00,-0.00,0.01,0.01,-0.18,9.74,0,0,0
602,-0.00,-0.00,0.01,0.01,-0.18,9.74,0,0,0
603,-0.00,-0.00,0.01,0.01,-0.18,9.73,0,0,0
604,-0.00,-0.00,0.00,-0.02,-0.19,9.73,0,0,0
605,-0.00,0.00,-0.00,-0.00,-0.17,9.74,0,0,0
606,-0.00,0.00,-0.00,0.00,-0.18,9.75,0,0,0
607,-0.00,0.00,-0.01,0.00,-0.18,9.76,0,0,0
608,-0.00,0.00,-0.01,0.02,-0.17,9.75,0,0,0
609,-0.00,0.00,-0.01,0.02,-0.17,9.76,0,0,0
610,-0.00,0.00,-0.02,0.03,-0.20,9.74,0,0,0
611,-0.00,0.00,-0.02,0.03,-0.18,9.77,0,0,0
612,-0.00,0.00,-0.01,0.02,-0.19,9.77,0,0,0
613,-0.00,0.00,-0.01,-0.00,-0.18,9.77,0,0,0
614,-0.00,-0.00,-0.00,-0.00,-0.18,9.76,0,0,0
615,-0.00,-0.00,0.00,-0.01,-0.17,9.77,0,0,0
616,-0.00,0.00,0.00,0.00,-0.18,9.75,0,0,0
617,-0.00,-0.00,0.00,0.01,-0.17,9.77,0,0,0
618,-0.00,0.00,-0.00,0.01,-0.16,9.73,0,0,0
619,-0.00,0.00,-0.01,0.02,-0.16,9.73,0,0,0
620,-0.00,0.00,-0.01,0.03,-0.18,9.74,0,0,0
621,-0.00,0.00,-0.02,0.03,-0.19,9.76,0,0,0
622,-0.00,0.00,-0.02,0.03,-0.18,9.75,0,0,0
623,-0.00,0.00,-0.03,0.03,-0.17,9.78,0,0,0
624,-0.00,0.01,-0.02,0.02,-0.19,9.74,0,0,0
625,-0.00,-0.00,-0.01,-0.00,-0.15,9.75,0,0,0
626,-0.00,-0.00,-0.00,0.01,-0.17,9.75,0,0,0
627,-0.00,-0.00,0.01,0.00,-0.17,9.75,0,0,0
628,-0.00,-0.00,0.01,0.01,-0.18,9.75,0,0,0
629,-0.00,-0.00,0.01,0.03,-0.19,9.77,0,0,0
630,-0.00,-0.00,0.01,0.03,-0.18,9.77,0,0,0
631,-0.00,-0.00,0.00,0.01,-0.17,9.76,0,0,0
632,-0.00,0.00,-0.01,-0.00,-0.17,9.74,0,0,0
633,-0.00,0.00,-0.00,0.02,-0.18,9.74,0,0,0
634,-0.00,0.00,-0.00,0.00,-0.17,9.76,0,0,0
635,-0.00,0.00,-0.00,0.00,-0.16,9.74,0,0,0
636,-0.00,0.00,-0.00,0.01,-0.17,9.75,0,0,0
637,-0.00,0.01,-0.00,0.03,-0.17,9.77,0,0,0
638,-0.00,0.01,-0.01,0.02,-0.18,9.78,0,0,0
639,-0.00,0.01,-0.01,0.01,-0.17,9.76,0,0,0
640,-0.00,0.00,-0.01,0.00,-0.18,9.78,0,0,0
641,-0.00,0.00,-0.01,-0.00,-0.19,9.78,0,0,0
642,-0.00,-0.00,-0.01,0.00,-0.18,9.75,0,0,0
643,-0.00,-0.00,-0.01,0.02,-0.21,9.75,0,0,0
644,-0.00,-0.00,-0.02,0.03,-0.18,9.73,0,0,0
645,-0.00,-0.00,-0.02,0.02,-0.18,9.73,0,0,0
646,-0.00,-0.00,-0.01,0.03,-0.19,9.73,0,0,0
647,-0.00,-0.00,0.00,0.01,-0.16,9.71,0,0,0
648,-0.00,-0.00,0.01,0.02,-0.15,9.73,0,0,0
649,-0.00,-0.00,0.01,0.02,-0.17,9.78,0,0,0
650,-0.00,0.00,0.01,0.01,-0.16,9.78,0,0,0
651,-0.00,0.00,0.01,0.00,-0.18,9.75,0,0,0
652,-0.00,0.00,0.00,0.02,-0.18,9.73,0,0,0
653,-0.00,0.00,-0.00,0.01,-0.17,9.73,0,0,0
654,-0.00,-0.00,-0.01,-0.01,-0.17,9.75,0,0,0
655,-0.00,-0.00,-0.01,0.01,-0.17,9.75,0,0,0
656,-0.00,-0.00,-0.00,-0.02,-0.16,9.76,0,0,0
657,-0.00,-0.00,0.00,0.01,-0.16,9.75,0,0,0
658,0.00,-0.00,0.00,0.03,-0.18,9.75,0,0,0
659,-0.00,0.00,0.01,0.03,-0.20,9.76,0,0,0
660,-0.00,0.00,0.01,0.05,-0.19,9.74,0,0,0
661,-0.00,0.00,0.00,0.02,-0.18,9.76,0,0,0
662,-0.00,0.00,-0.00,0.02,-0.19,9.81,0,0,0
663,0.00,0.01,-0.01,0.00,-0.19,9.75,0,0,0
664,0.00,0.01,-0.02,-0.00,-0.18,9.76,0,0,0
665,0.00,0.01,-0.02,-0.01,-0.17,9.75,0,0,0
666,-0.00,0.00,-0.01,-0.02,-0.16,9.75,0,0,0
667,-0.00,0.00,-0.01,-0.00,-0.16,9.74,0,0,0
668,-0.00,0.00,-0.01,-0.00,-0.16,9.75,0,0,0
669,-0.00,0.00,-0.01,0.01,-0.17,9.74,0,0,0
670,0.00,0.00,-0.01,0.02,-0.17,9.78,0,0,0
671,0.00,0.00,-0.02,0.04,-0.16,9.77,0,0,0
672,0.00,0.00,-0.02,0.04,-0.17,9.75,0,0,0
673,0.00,0.01,-0.02,0.03,-0.17,9.75,0,0,0
674,-0.00,0.01,-0.02,0.03,-0.17,9.76,0,0,0
675,-0.00,0.00,-0.02,0.03,-0.17,9.75,0,0,0
676,-0.00,0.00,-0.02,0.01,-0.16,9.74,0,0,0
677,-0.00,0.00,-0.01,0.01,-0.17,9.75,0,0,0
678,-0.00,0.00,-0.01,0.01,-0.17,9.72,0,0,0
679,-0.00,0.00,-0.00,-0.00,-0.16,9.72,0,0,0
680,-0.00,0.00,-0.00,0.02,-0.17,9.75,0,0,0
681,-0.00,0.00,-0.00,0.01,-0.17,9.76,0,0,0
682,-0.00,0.00,-0.00,0.02,-0.18,9.76,0,0,0
683,-0.00,-0.00,-0.00,0.02,-0.18,9.75,0,0,0
684,-0.00,0.00,-0.00,0.01,-0.17,9.76,0,0,0
685,-0.00,-0.00,-0.00,0.02,-0.18,9.76,0,0,0
686,-0.00,0.00,-0.01,0.02,-0.18,9.73,0,0,0
687,-0.00,0.00,-0.01,0.04,-0.17,9.75,0,0,0
688,-0.00,0.00,-0.01,0.03,-0.16,9.78,0,0,0
689,-0.00,0.00,-0.00,0.03,-0.15,9.75,0,0,0
690,-0.00,0.00,0.01,0.03,-0.18,9.74,0,0,0
691,-0.00,-0.00,0.01,0.02,-0.16,9.76,0,0,0
692,-0.00,-0.00,0.01,0.02,-0.17,9.78,0,0,0
693,-0.00,-0.00,0.01,0.02,-0.18,9.76,0,0,0
694,-0.00,-0.00,0.00,0.01,-0.18,9.75,0,0,0
695,-0.00,-0.00,0.00,0.01,-0.18,9.78,0,0,0
696,-0.00,-0.00,0.01,-0.02,-0.17,9.73,0,0,0
697,-0.00,0.00,0.00,-0.00,-0.19,9.77,0,0,0
698,-0.00,0.00,-0.00,-0.02,-0.17,9.77,0,0,0
699,-0.00,0.00,-0.01,-0.00,-0.16,9.76,0,0,0
700,-0.00,0.01,-0.01,-0.01,-0.16,9.76,0,0,0
701,-0.00,0.00,0.00,0.00,-0.18,9.75,0,0,0
702,-0.00,0.00,0.00,0.00,-0.17,9.75,0,0,0
703,-0.00,0.00,0.00,0.03,-0.17,9.75,0,0,0
704,-0.00,0.00,0.00,0.01,-0.16,9.74,0,0,0
705,-0.00,0.00,0.00,-0.00,-0.17,9.77,0,0,0
706,-0.00,0.00,0.00,0.01,-0.16,9.80,0,0,0
707,-0.00,0.00,0.01,0.01,-0.17,9.75,0,0,0
708,-0.00,-0.00,0.01,-0.00,-0.17,9.77,0,0,0
709,-0.00,-0.00,0.01,0.01,-0.19,9.75,0,0,0
710,-0.00,-0.00,0.00,0.00,-0.18,9.75,0,0,0
711,-0.00,-0.00,-0.00,-0.00,-0.19,9.77,0,0,0
712,-0.00,0.00,-0.00,-0.01,-0.16,9.78,0,0,0
713,0.00,0.00,0.01,0.00,-0.18,9.73,0,0,0
714,0.00,0.00,0.01,0.02,-0.17,9.75,0,0,0
715,-0.00,0.00,0.01,-0.02,-0.17,9.76,0,0,0
716,-0.00,0.00,0.00,-0.01,-0.17,9.76,0,0,0
717,-0.00,0.00,-0.00,-0.00,-0.17,9.73,0,0,0
718,-0.00,0.00,-0.01,0.00,-0.18,9.78,0,0,0
719,-0.00,0.00,-0.01,-0.00,-0.17,9.76,0,0,0
720,-0.00,0.00,-0.02,0.00,-0.17,9.74,0,0,0
721,-0.00,0.00,-0.01,-0.00,-0.17,9.73,0,0,0
722,-0.00,0.00,-0.01,-0.00,-0.17,9.73,0,0,0
723,-0.00,-0.00,0.01,0.01,-0.16,9.78,0,0,0
724,-0.00,-0.00,0.01,-0.01,-0.14,9.76,0,0,0
725,-0.00,-0.00,0.01,-0.02,-0.14,9.75,0,0,0
726,-0.00,-0.01,0.02,-0.01,-0.16,9.75,0,0,0
727,-0.00,-0.00,0.02,0.01,-0.17,9.75,0,0,0
728,-0.00,-0.00,0.02,0.01,-0.17,9.75,0,0,0
729,-0.00,-0.00,0.01,0.01,-0.17,9.76,0,0,0
730,-0.00,0.00,-0.00,0.03,-0.19,9.76,0,0,0
731,-0.00,0.00,-0.00,0.02,-0.18,9.76,0,0,0
732,-0.00,0.00,-0.01,0.02,-0.19,9.74,0,0,0
733,-0.00,0.00,-0.01,0.01,-0.18,9.74,0,0,0
734,-0.00,-0.00,-0.01,0.02,-0.18,9.73,0,0,0
735,-0.00,-0.00,-0.01,-0.00,-0.18,9.73,0,0,0
736,-0.00,-0.00,0.00,0.01,-0.16,9.76,0,0,0
737,-0.00,-0.00,0.01,-0.00,-0.17,9.76,0,0,0
738,-0.00,-0.00,0.01,-0.00,-0.16,9.75,0,0,0
739,-0.00,0.00,0.01,0.01,-0.18,9.73,0,0,0
740,-0.00,0.00,0.01,0.01,-0.19,9.76,0,0,0
741,-0.00,0.00,0.01,0.01,-0.18,9.77,0,0,0
742,-0.00,0.00,0.00,0.01,-0.20,9.74,0,0,0
743,-0.00,0.00,-0.01,0.03,-0.17,9.72,0,0,0
744,-0.00,0.00,-0.01,0.02,-0.16,9.74,0,0,0
745,0.00,0.01,-0.01,0.00,-0.17,9.73,0,0,0
746,0.00,0.01,-0.02,0.01,-0.17,9.75,0,0,0
747,-0.00,0.00,-0.01,-0.01,-0.15,9.73,0,0,0
748,-0.00,0.00,-0.01,0.01,-0.16,9.73,0,0,0
749,-0.00,0.00,-0.01,0.01,-0.19,9.76,0,0,0
750,-0.00,0.00,-0.00,0.01,-0.19,9.75,0,0,0
751,-0.00,0.01,-0.00,0.02,-0.19,9.75,0,0,0
752,0.00,0.01,0.00,0.02,-0.19,9.74,0,0,0
753,-0.00,0.01,0.00,-0.00,-0.18,9.76,0,0,0
754,-0.00,0.01,0.00,-0.01,-0.19,9.75,0,0,0
755,-0.00,0.01,-0.00,-0.01,-0.18,9.74,0,0,0
756,-0.00,0.01,-0.00,0.01,-0.16,9.75,0,0,0
757,0.00,0.01,-0.00,-0.01,-0.18,9.75,0,0,0
758,0.00,0.01,-0.01,0.01,-0.18,9.77,0,0,0
759,0.00,0.01,-0.01,0.02,-0.18,9.75,0,0,0
760,0.00,0.01,-0.01,0.03,-0.17,9.75,0,0,0
761,0.00,0.01,-0.02,0.02,-0.17,9.73,0,0,0
762,0.00,0.01,-0.02,0.02,-0.15,9.74,0,0,0
763,0.00,0.01,-0.01,0.01,-0.16,9.77,0,0,0
764,0.00,0.01,-0.01,0.01,-0.17,9.78,0,0,0
765,0.00,0.01,-0.00,0.01,-0.18,9.74,0,0,0
766,0.00,0.01,-0.00,-0.01,-0.16,9.76,0,0,0
767,0.00,0.01,-0.00,-0.01,-0.19,9.74,0,0,0
768,0.00,0.01,0.01,-0.02,-0.16,9.76,0,0,0
769,0.00,0.01,0.01,-0.00,-0.17,9.75,0,0,0
770,0.00,0.01,0.01,-0.00,-0.18,9.74,0,0,0
771,0.00,0.02,0.01,0.01,-0.17,9.75,0,0,0
772,0.00,0.02,-0.00,-0.01,-0.17,9.75,0,0,0
773,0.00,0.02,-0.00,-0.00,-0.16,9.75,0,0,0
774,0.00,0.03,-0.00,0.00,-0.13,9.76,0,0,0
775,-0.00,0.05,0.01,0.07,-0.11,9.73,0,0,0
776,-0.01,0.09,0.05,0.11,-0.10,9.69,0,0,0
777,-0.01,0.11,0.07,0.06,-0.12,9.72,0,0,0
778,-0.00,0.14,0.11,-0.01,-0.14,9.74,0,0,0
779,-0.00,0.15,0.13,-0.09,-0.16,9.73,0,0,0
780,-0.00,0.14,0.13,-0.13,-0.18,9.77,0,0,0
781,0.00,0.13,0.11,-0.12,-0.18,9.77,0,0,0
782,0.00,0.12,0.10,-0.13,-0.18,9.78,0,0,0
783,0.00,0.11,0.08,-0.15,-0.19,9.77,0,0,0
784,0.00,0.09,0.05,-0.16,-0.20,9.75,0,0,0
785,0.01,0.07,0.03,-0.16,-0.20,9.78,0,0,0
786,0.01,0.06,0.01,-0.18,-0.18,9.75,0,0,0
787,0.00,0.04,-0.01,-0.15,-0.17,9.75,0,0,0
788,0.01,0.03,-0.01,-0.20,-0.18,9.76,0,0,0
789,0.01,0.02,-0.01,-0.18,-0.16,9.76,0,0,0
790,0.01,0.02,-0.01,-0.17,-0.17,9.76,0,0,0
791,0.01,0.01,-0.01,-0.17,-0.15,9.72,0,0,0
792,0.02,0.01,-0.01,-0.17,-0.15,9.74,0,0,0
793,0.02,0.01,-0.01,-0.17,-0.15,9.74,0,0,0
794,0.02,0.00,-0.00,-0.17,-0.17,9.74,0,0,0
795,0.02,-0.00,-0.00,-0.17,-0.14,9.74,0,0,0
796,0.02,-0.01,-0.01,-0.18,-0.15,9.74,0,0,0
797,0.04,-0.01,-0.01,-0.20,-0.17,9.75,0,0,0
798,0.06,-0.01,-0.02,-0.16,-0.21,9.72,0,0,0
799,0.08,-0.01,-0.02,-0.18,-0.23,9.72,0,0,0
800,0.14,-0.01,-0.02,-0.18,-0.30,9.66,0,0,0
801,0.18,-0.01,-0.02,-0.14,-0.24,9.67,0,0,0
802,0.22,-0.00,-0.02,-0.15,-0.19,9.64,0,0,0
803,0.25,0.00,-0.02,-0.16,-0.13,9.69,0,0,0
804,0.25,0.01,-0.02,-0.15,0.03,9.76,0,0,0
805,0.23,0.01,-0.03,-0.16,0.10,9.79,0,0,0
806,0.20,0.01,-0.03,-0.17,0.12,9.80,0,0,0
807,0.17,0.01,-0.04,-0.19,0.17,9.82,0,0,0
808,0.14,0.01,-0.04,-0.20,0.16,9.82,0,0,0
809,0.09,0.00,-0.04,-0.16,0.17,9.81,0,0,0
810,0.04,-0.00,-0.04,-0.16,0.14,9.79,0,0,0
811,0.02,-0.01,-0.03,-0.15,0.12,9.78,0,0,0
812,0.01,-0.01,-0.01,-0.13,0.09,9.75,0,0,0
813,0.01,-0.01,0.00,-0.14,0.08,9.73,0,0,0
814,0.01,-0.00,0.02,-0.15,0.06,9.74,0,0,0
815,0.01,-0.00,0.03,-0.14,0.06,9.79,0,0,0
816,0.01,-0.00,0.03,-0.15,0.06,9.77,0,0,0
817,0.01,-0.00,0.03,-0.13,0.05,9.74,0,0,0
818,0.01,0.00,0.02,-0.15,0.05,9.75,0,0,0
819,0.01,0.01,0.01,-0.15,0.05,9.73,0,0,0
820,0.02,0.01,-0.01,-0.15,0.04,9.74,0,0,0
821,0.02,0.01,-0.01,-0.16,0.06,9.76,0,0,0
822,0.03,0.01,-0.00,-0.15,0.05,9.76,0,0,0
823,0.05,0.02,0.00,-0.15,0.05,9.75,0,0,0
824,0.06,0.01,0.01,-0.16,0.08,9.76,0,0,0
825,0.06,0.01,0.01,-0.18,0.09,9.75,0,0,0
826,0.06,0.01,0.02,-0.18,0.10,9.76,0,0,0
827,0.06,0.01,0.02,-0.17,0.10,9.76,0,0,0
828,0.05,0.01,0.01,-0.17,0.13,9.76,0,0,0
829,0.04,0.01,0.00,-0.17,0.12,9.78,0,0,0
830,0.03,0.01,-0.01,-0.18,0.16,9.80,0,0,0
831,0.01,0.00,-0.00,-0.17,0.15,9.77,0,0,0
832,0.01,-0.00,0.00,-0.17,0.15,9.76,0,0,0
833,0.00,-0.00,0.01,-0.15,0.13,9.75,0,0,0
834,0.00,0.01,0.02,-0.15,0.12,9.75,0,0,0
835,0.00,0.01,0.01,-0.19,0.11,9.78,0,0,0
836,0.00,0.01,0.00,-0.19,0.13,9.77,0,0,0
837,0.01,0.01,-0.00,-0.18,0.12,9.76,0,0,0
838,0.01,0.01,-0.01,-0.17,0.13,9.78,0,0,0
839,0.01,0.01,-0.01,-0.17,0.11,9.77,0,0,0
840,0.01,0.01,-0.01,-0.20,0.11,9.78,0,0,0
841,0.01,0.01,-0.01,-0.18,0.13,9.77,0,0,0
842,0.01,0.01,-0.00,-0.18,0.13,9.75,0,0,0
843,0.01,0.01,0.01,-0.16,0.13,9.73,0,0,0
844,0.01,0.01,0.00,-0.16,0.13,9.73,0,0,0
845,0.01,0.01,-0.00,-0.18,0.13,9.77,0,0,0
846,0.01,0.01,-0.00,-0.19,0.15,9.75,0,0,0
847,0.01,0.00,-0.00,-0.18,0.12,9.78,0,0,0
848,0.01,0.01,-0.01,-0.19,0.13,9.76,0,0,0
849,0.01,0.01,-0.01,-0.21,0.13,9.77,0,0,0
850,0.01,0.00,-0.01,-0.19,0.13,9.77,0,0,0
851,0.01,0.00,-0.01,-0.17,0.13,9.77,0,0,0
852,0.01,0.01,-0.00,-0.17,0.12,9.77,0,0,0
853,0.01,0.00,0.00,-0.18,0.13,9.75,0,0,0
854,0.00,-0.00,-0.00,-0.16,0.13,9.77,0,0,0
855,0.00,0.00,0.00,-0.18,0.13,9.75,0,0,0
856,0.00,0.00,0.00,-0.17,0.13,9.76,0,0,0
857,0.01,0.00,0.01,-0.16,0.14,9.78,0,0,0
858,0.01,0.01,0.01,-0.17,0.13,9.75,0,0,0
859,0.01,0.01,0.01,-0.16,0.14,9.78,0,0,0
860,0.02,0.00,0.01,-0.15,0.14,9.76,0,0,0
861,0.02,0.00,0.01,-0.18,0.15,9.77,0,0,0
862,0.02,0.00,0.00,-0.19,0.16,9.77,0,0,0
863,0.02,-0.00,0.00,-0.21,0.15,9.78,0,0,0
864,0.01,-0.00,-0.00,-0.17,0.17,9.78,0,0,0
865,0.01,-0.00,0.00,-0.18,0.16,9.78,0,0,0
866,0.01,0.00,0.00,-0.17,0.16,9.80,0,0,0
867,0.01,0.00,0.01,-0.19,0.14,9.75,0,0,0
868,0.01,0.00,0.01,-0.18,0.15,9.75,0,0,0
869,0.01,0.00,0.00,-0.19,0.14,9.77,0,0,0
870,0.01,0.00,-0.00,-0.21,0.14,9.78,0,0,0
871,0.01,0.00,-0.01,-0.19,0.16,9.77,0,0,0
872,0.01,0.00,-0.01,-0.18,0.15,9.76,0,0,0
873,0.01,0.00,-0.01,-0.16,0.16,9.74,0,0,0
874,0.01,0.00,-0.01,-0.15,0.14,9.76,0,0,0
875,0.01,0.00,-0.01,-0.17,0.17,9.74,0,0,0
876,0.01,0.00,-0.01,-0.16,0.16,9.76,0,0,0
877,0.02,0.01,-0.01,-0.17,0.16,9.78,0,0,0
878,0.02,0.01,-0.01,-0.18,0.17,9.78,0,0,0
879,0.02,0.01,-0.01,-0.20,0.16,9.77,0,0,0
880,0.02,0.00,-0.01,-0.20,0.17,9.76,0,0,0
881,0.03,0.00,-0.00,-0.18,0.18,9.78,0,0,0
882,0.03,0.00,-0.00,-0.17,0.18,9.77,0,0,0
883,0.02,0.00,0.00,-0.18,0.18,9.75,0,0,0
884,0.01,-0.00,-0.00,-0.19,0.18,9.76,0,0,0
885,0.00,-0.00,-0.00,-0.17,0.21,9.78,0,0,0
886,-0.00,-0.00,-0.00,-0.17,0.19,9.76,0,0,0
887,-0.00,-0.00,-0.01,-0.17,0.17,9.76,0,0,0
888,0.00,-0.00,-0.00,-0.18,0.17,9.74,0,0,0
889,0.00,-0.00,0.00,-0.18,0.18,9.76,0,0,0
890,0.00,0.00,0.01,-0.20,0.18,9.78,0,0,0
891,0.01,0.00,0.01,-0.21,0.19,9.79,0,0,0
892,0.00,-0.00,0.01,-0.20,0.19,9.77,0,0,0
893,-0.00,-0.00,0.01,-0.20,0.17,9.75,0,0,0
894,-0.00,-0.00,0.00,-0.18,0.17,9.76,0,0,0
895,-0.01,-0.00,-0.00,-0.18,0.18,9.77,0,0,0
896,-0.01,-0.00,-0.01,-0.19,0.17,9.78,0,0,0
897,-0.01,0.00,-0.01,-0.19,0.18,9.77,0,0,0
898,-0.00,0.00,-0.01,-0.19,0.19,9.76,0,0,0
899,-0.00,0.01,-0.01,-0.20,0.17,9.74,0,0,0
900,0.00,0.00,-0.01,-0.21,0.19,9.73,0,0,0
901,-0.00,0.00,-0.01,-0.20,0.17,9.75,0,0,0
902,-0.00,0.00,-0.01,-0.19,0.19,9.76,0,0,0
903,-0.00,0.00,-0.01,-0.18,0.18,9.74,0,0,0
904,-0.01,0.00,-0.01,-0.17,0.18,9.74,0,0,0
905,-0.00,0.00,-0.01,-0.18,0.17,9.76,0,0,0
906,-0.00,0.01,-0.01,-0.16,0.15,9.76,0,0,0
907,-0.00,0.01,-0.02,-0.17,0.17,9.73,0,0,0
908,-0.01,0.00,-0.02,-0.17,0.18,9.75,0,0,0
909,-0.01,-0.00,-0.02,-0.18,0.20,9.79,0,0,0
910,-0.01,-0.00,-0.01,-0.16,0.19,9.80,0,0,0
911,-0.01,-0.00,0.01,-0.18,0.17,9.75,0,0,0
912,-0.00,0.00,0.01,-0.17,0.16,9.74,0,0,0
913,-0.00,0.00,0.01,-0.18,0.16,9.74,0,0,0
914,-0.00,0.00,0.00,-0.19,0.15,9.75,0,0,0
915,-0.00,0.00,-0.00,-0.19,0.15,9.74,0,0,0
916,-0.00,-0.00,-0.01,-0.17,0.15,9.75,0,0,0
917,-0.00,0.00,-0.01,-0.14,0.16,9.75,0,0,0
918,-0.00,0.00,-0.01,-0.18,0.19,9.74,0,0,0
919,-0.00,0.01,-0.01,-0.19,0.17,9.75,0,0,0
920,-0.00,0.00,-0.00,-0.20,0.16,9.77,0,0,0
921,-0.00,-0.00,0.00,-0.21,0.15,9.77,0,0,0
922,-0.01,-0.01,-0.00,-0.18,0.18,9.74,0,0,0
923,-0.01,-0.01,-0.00,-0.19,0.17,9.75,0,0,0
924,-0.01,-0.01,-0.01,-0.18,0.16,9.77,0,0,0
925,-0.00,-0.01,-0.01,-0.17,0.17,9.77,0,0,0
926,-0.00,-0.00,-0.01,-0.18,0.18,9.75,0,0,0
927,-0.00,-0.00,-0.01,-0.16,0.18,9.76,0,0,0
928,-0.00,-0.00,-0.00,-0.16,0.17,9.76,0,0,0
929,-0.00,-0.00,-0.00,-0.19,0.18,9.78,0,0,0
930,-0.01,-0.00,-0.01,-0.17,0.17,9.80,0,0,0
931,-0.01,0.00,-0.01,-0.19,0.18,9.77,0,0,0
932,-0.01,0.00,-0.00,-0.19,0.17,9.75,0,0,0
933,-0.00,0.00,-0.01,-0.19,0.16,9.76,0,0,0
934,-0.00,0.00,-0.02,-0.17,0.18,9.77,0,0,0
935,-0.00,-0.00,-0.01,-0.20,0.17,9.76,0,0,0
936,-0.00,-0.00,-0.01,-0.17,0.17,9.77,0,0,0
937,-0.00,-0.00,-0.01,-0.18,0.17,9.76,0,0,0
938,-0.01,-0.00,-0.01,-0.17,0.17,9.76,0,0,0
939,-0.00,-0.00,-0.01,-0.18,0.19,9.77,0,0,0
940,-0.00,-0.00,0.00,-0.19,0.18,9.75,0,0,0
941,-0.00,-0.00,0.01,-0.19,0.15,9.74,0,0,0
942,-0.00,-0.00,0.01,-0.18,0.15,9.75,0,0,0
943,-0.00,-0.00,0.00,-0.18,0.14,9.76,0,0,0
944,-0.01,-0.00,0.00,-0.18,0.15,9.76,0,0,0
945,-0.01,-0.00,0.00,-0.17,0.17,9.80,0,0,0
946,-0.01,-0.00,0.00,-0.17,0.18,9.76,0,0,0
947,-0.01,-0.00,-0.01,-0.16,0.16,9.76,0,0,0
948,-0.01,-0.00,-0.01,-0.18,0.16,9.75,0,0,0
949,-0.01,0.00,-0.01,-0.17,0.17,9.73,0,0,0
950,-0.01,0.00,-0.02,-0.17,0.17,9.75,0,0,0
951,-0.01,0.00,-0.02,-0.18,0.16,9.77,0,0,0
952,-0.01,-0.00,-0.02,-0.20,0.18,9.77,0,0,0
953,-0.01,-0.01,-0.01,-0.18,0.17,9.75,0,0,0
954,-0.02,-0.01,-0.01,-0.16,0.18,9.78,0,0,0
955,-0.02,-0.01,-0.00,-0.16,0.16,9.76,0,0,0
956,-0.03,-0.01,0.01,-0.14,0.13,9.75,0,0,0
957,-0.03,-0.01,0.01,-0.15,0.18,9.75,0,0,0
958,-0.03,-0.01,0.03,-0.13,0.18,9.76,0,0,0
959,-0.03,-0.02,0.04,-0.12,0.19,9.78,0,0,0
960,-0.05,-0.02,0.10,-0.04,0.17,9.74,0,0,0
961,-0.05,-0.02,0.11,-0.06,0.18,9.73,0,0,0
962,-0.15,-0.02,0.14,-0.08,0.27,9.67,0,0,0
963,-0.19,-0.03,0.13,-0.06,0.12,9.68,0,0,0
964,-0.23,-0.03,0.12,-0.11,0.03,9.57,0,0,0
965,-0.25,-0.12,0.33,-0.07,-0.72,9.05,0,0,0
966,-0.22,-0.14,0.37,0.00,-0.58,9.10,0,0,0
967,-0.20,-0.16,0.39,0.04,-0.64,9.12,0,0,0
968,-0.14,-0.18,0.41,0.17,-0.54,9.28,0,0,0
969,-0.09,-0.18,0.36,0.39,-0.40,9.57,0,0,0
970,-0.08,-0.17,0.33,0.41,-0.43,9.76,0,0,0
971,-0.05,-0.29,0.45,-0.25,-0.74,9.62,0,0,0
972,-0.07,-0.33,0.72,0.57,-0.53,10.09,0,0,0
973,-0.06,-0.23,0.64,0.80,-0.24,10.32,0,0,0
974,-0.04,-0.13,0.43,0.55,-0.06,10.20,0,0,0
975,-0.01,-0.11,0.33,0.08,0.01,10.08,0,0,0
976,0.05,-0.10,0.33,0.09,0.01,10.04,0,0,0
977,0.09,-0.09,0.31,0.11,0.14,10.12,0,0,0
978,0.10,-0.08,0.29,0.05,0.26,10.15,0,0,0
979,0.08,-0.08,0.29,0.05,0.35,10.11,0,0,0
980,0.03,-0.06,0.26,0.05,0.47,10.07,0,0,0
981,-0.05,-0.05,0.21,0.02,0.53,10.04,0,0,0
982,-0.10,-0.05,0.18,0.02,0.47,10.03,0,0,0
983,-0.11,-0.04,0.16,-0.01,0.47,10.05,0,0,0
984,-0.12,-0.04,0.11,0.07,0.33,10.10,0,0,0
985,-0.11,-0.03,0.10,0.05,0.30,9.97,0,0,0
986,-0.11,-0.02,0.07,0.02,0.31,9.92,0,0,0
987,-0.10,-0.04,0.04,-0.03,0.25,9.93,0,0,0
988,-0.08,-0.07,-0.02,-0.02,0.21,9.94,0,0,0
989,-0.08,-0.09,-0.06,0.00,0.13,9.97,0,0,0
990,-0.10,-0.09,-0.07,0.25,-0.06,10.09,0,0,0
991,-0.10,-0.06,-0.05,0.20,-0.20,10.12,0,0,0
992,-0.09,-0.05,-0.04,0.28,-0.21,10.18,0,0,0
993,-0.06,-0.02,-0.01,0.28,-0.29,10.32,0,0,0
994,-0.04,-0.01,-0.01,0.18,-0.33,10.32,0,0,0
995,-0.03,-0.00,-0.02,0.38,-0.31,10.20,0,0,0
996,-0.07,0.06,0.02,0.19,-0.11,10.11,0,0,0
997,-0.11,0.08,0.06,0.10,0.01,10.03,0,0,0
998,-0.13,0.09,0.07,0.09,0.04,10.07,0,0,0
999,-0.17,0.11,0.09,0.11,0.09,10.16,0,0,0
1000,-0.20,0.14,0.12,0.14,0.07,10.15,0,0,0
1001,-0.17,0.19,0.14,0.16,-0.28,9.88,0,0,0
1002,-0.10,0.21,0.09,-0.20,-0.09,9.99,0,0,0
1003,-0.08,0.19,0.05,-0.09,-0.06,10.18,0,0,0
1004,-0.12,0.14,-0.07,0.15,-0.52,10.39,0,0,0
1005,-0.14,0.14,-0.06,0.14,-0.65,10.38,0,0,0
1006,-0.15,0.16,-0.00,0.18,-0.63,10.42,0,0,0
1007,-0.14,0.18,0.03,0.14,-0.49,10.42,0,0,0
1008,-0.11,0.20,0.03,0.12,-0.40,10.46,0,0,0
1009,-0.08,0.21,0.03,0.13,-0.41,10.54,0,0,0
1010,-0.13,-0.77,0.22,3.31,-0.49,10.82,0,0,0
1011,-0.17,0.07,0.03,2.10,-0.00,10.44,0,0,0
1012,-0.19,0.24,0.09,1.40,-0.20,10.03,0,0,0
1013,-0.21,0.24,0.08,1.01,-0.49,9.62,0,0,0
1014,-0.21,0.23,0.10,0.97,-0.39,9.55,0,0,0
1015,-0.26,0.22,0.13,1.03,-0.75,9.64,0,0,0
1016,-0.26,0.23,0.16,0.94,-1.13,9.92,0,0,0
1017,-0.25,0.23,0.20,0.85,-1.07,10.00,0,0,0
1018,-0.19,0.23,0.23,0.95,-0.94,10.32,0,0,0
1019,-0.10,0.28,0.24,1.09,-0.82,10.84,0,0,0
1020,-0.04,0.34,0.25,1.21,-0.69,11.28,0,0,0
1021,-0.01,0.38,0.26,1.25,-0.52,11.49,0,0,0
1022,-0.03,0.44,0.26,1.24,-0.27,11.70,0,0,0
1023,-0.05,0.47,0.24,1.23,-0.13,11.78,0,0,0
1024,-0.09,0.49,0.21,1.22,-0.07,11.73,0,0,0
1025,-0.16,0.52,0.16,1.04,-0.01,11.47,0,0,0
1026,-0.24,0.53,0.03,0.61,0.20,10.75,0,0,0
1027,-0.24,0.54,0.00,0.59,0.04,10.73,0,0,0
1028,-0.25,0.56,-0.01,0.46,-0.33,10.74,0,0,0
1029,-0.27,0.56,0.01,0.35,-0.48,10.72,0,0,0
1030,-0.29,0.55,0.03,0.26,-0.56,10.64,0,0,0
1031,-0.33,0.53,0.08,0.12,-0.53,10.40,0,0,0
1032,-0.35,0.52,0.11,0.19,-0.55,10.35,0,0,0
1033,-0.29,0.57,0.11,0.41,-0.80,10.58,0,0,0
1034,-0.14,0.67,0.13,0.42,-0.59,10.68,0,0,0
1035,-0.07,0.71,0.13,0.35,-0.51,10.56,0,0,0
1036,0.05,0.76,0.11,0.14,-0.42,10.36,0,0,0
1037,0.12,0.77,0.05,-0.08,-0.36,10.24,0,0,0
1038,0.13,0.77,0.02,-0.20,-0.36,10.12,0,0,0
1039,0.09,0.73,-0.00,-0.38,-0.47,9.97,0,0,0
1040,0.06,0.71,0.00,-0.41,-0.56,9.92,0,0,0
1041,0.02,0.69,0.01,-0.40,-0.63,9.90,0,0,0
1042,-0.03,0.68,0.05,-0.35,-0.74,9.77,0,0,0
1043,-0.04,0.69,0.07,-0.35,-0.78,9.74,0,0,0
1044,-0.04,0.70,0.06,-0.31,-0.69,9.81,0,0,0
1045,-0.04,0.71,0.05,-0.34,-0.64,9.76,0,0,0
1046,-0.06,0.72,0.03,-0.42,-0.70,9.54,0,0,0
1047,-0.05,0.73,0.02,-0.49,-0.76,9.40,0,0,0
1048,-0.04,0.73,0.02,-0.57,-0.80,9.29,0,0,0
1049,-0.02,0.74,0.00,-0.64,-0.84,9.14,0,0,0
1050,0.00,0.74,-0.00,-0.71,-0.85,9.02,0,0,0
1051,0.10,0.75,-0.04,-0.94,-0.71,8.80,0,0,0
1052,0.14,0.73,-0.08,-1.04,-0.53,8.71,0,0,0
1053,0.14,0.71,-0.13,-1.13,-0.52,8.58,0,0,0
1054,0.14,0.70,-0.15,-1.21,-0.56,8.49,0,0,0
1055,0.12,0.66,-0.15,-1.27,-0.58,8.38,0,0,0
1056,0.10,0.64,-0.14,-1.30,-0.59,8.28,0,0,0
1057,0.09,0.62,-0.13,-1.36,-0.59,8.18,0,0,0
1058,0.09,0.60,-0.13,-1.37,-0.49,8.08,0,0,0
1059,0.10,0.59,-0.13,-1.45,-0.45,8.04,0,0,0
1060,0.13,0.55,-0.14,-1.62,-0.26,7.79,0,0,0
1061,0.14,0.52,-0.17,-1.69,-0.19,7.71,0,0,0
1062,0.19,0.46,-0.26,-1.79,-0.21,7.51,0,0,0
1063,0.21,0.42,-0.31,-1.82,-0.26,7.38,0,0,0
1064,0.23,0.38,-0.33,-1.91,-0.29,7.28,0,0,0
1065,0.24,0.33,-0.34,-1.99,-0.34,7.10,0,0,0
1066,0.25,0.28,-0.33,-1.99,-0.34,6.99,0,0,0
1067,0.27,0.23,-0.33,-2.06,-0.30,6.92,0,0,0
1068,0.28,0.17,-0.34,-2.18,-0.29,6.75,0,0,0
1069,0.24,0.10,-0.33,-2.22,-0.27,6.68,0,0,0
1070,0.15,0.03,-0.32,-2.29,-0.39,6.43,0,0,0
1071,0.11,-0.03,-0.28,-2.33,-0.67,6.31,0,0,0
1072,0.11,-0.09,-0.23,-2.37,-0.77,6.27,0,0,0
1073,0.11,-0.15,-0.19,-2.45,-0.68,6.26,0,0,0
1074,0.10,-0.22,-0.16,-2.51,-0.67,6.17,0,0,0
1075,0.10,-0.29,-0.15,-2.53,-0.76,6.17,0,0,0
1076,0.12,-0.34,-0.13,-2.45,-1.02,6.28,0,0,0
1077,0.21,-0.41,-0.02,-2.52,-1.04,6.47,0,0,0
1078,0.22,-0.44,0.03,-2.51,-1.00,6.61,0,0,0
1079,0.21,-0.47,0.11,-2.49,-0.83,6.85,0,0,0
1080,0.15,-0.49,0.18,-2.42,-0.53,7.27,0,0,0
1081,0.07,-0.49,0.19,-2.35,-0.44,7.79,0,0,0
1082,0.00,-0.49,0.18,-2.37,-0.41,8.22,0,0,0
1083,-0.05,-0.48,0.17,-2.50,-0.29,8.50,0,0,0
1084,-0.08,-0.46,0.16,-2.46,-0.23,8.67,0,0,0
1085,-0.12,-0.43,0.15,-2.72,-0.19,8.83,0,0,0
1086,-0.17,-0.43,0.12,-2.79,-0.15,9.15,0,0,0
1087,-0.23,-0.46,-0.01,-2.93,-0.32,9.67,0,0,0
1088,-0.28,-0.22,0.11,-2.40,-1.83,11.78,0,0,0
1089,-0.19,-0.23,0.11,-2.24,-1.89,11.87,0,0,0
1090,-0.08,-0.22,0.11,-1.81,-2.06,12.12,0,0,0
1091,0.01,-0.16,0.17,-1.29,-2.11,12.48,0,0,0
1092,0.04,-0.09,0.24,-1.03,-1.98,12.63,0,0,0
1093,0.06,-0.01,0.31,-0.87,-1.71,12.62,0,0,0
1094,0.10,0.11,0.38,-0.84,-1.25,12.42,0,0,0
1095,0.13,0.18,0.40,-0.89,-0.98,12.13,0,0,0
1096,0.14,0.22,0.39,-1.01,-0.55,11.80,0,0,0
1097,0.16,0.21,0.37,-1.04,-0.48,11.63,0,0,0
1098,0.18,0.21,0.36,-1.08,-0.46,11.58,0,0,0
1099,0.26,0.19,0.36,-1.08,-0.44,11.63,0,0,0
1100,0.34,0.19,0.37,-1.01,-0.26,11.76,0,0,0
1101,0.38,0.20,0.37,-0.95,-0.19,11.91,0,0,0
1102,0.46,0.22,0.36,-0.85,-0.09,12.14,0,0,0
1103,0.48,0.25,0.37,-0.80,0.01,12.17,0,0,0
1104,0.48,0.26,0.39,-1.01,0.24,12.14,0,0,0
1105,0.39,0.30,0.38,-0.84,0.64,12.17,0,0,0
1106,0.30,0.32,0.37,-0.95,0.75,12.23,0,0,0
1107,0.12,0.33,0.38,-0.90,0.80,12.19,0,0,0
1108,0.05,0.34,0.38,-0.88,0.75,12.15,0,0,0
1109,-0.05,0.34,0.38,-0.90,0.67,12.03,0,0,0
1110,-0.10,0.31,0.37,-0.88,0.47,11.93,0,0,0
1111,-0.10,0.31,0.36,-0.43,0.21,12.04,0,0,0
1112,-0.04,0.35,0.32,-0.27,0.07,12.07,0,0,0
1113,0.03,0.41,0.26,-0.25,-0.02,11.86,0,0,0
1114,0.07,0.44,0.24,-0.27,-0.00,11.71,0,0,0
1115,0.10,0.47,0.21,-0.30,0.02,11.50,0,0,0
1116,0.15,0.50,0.16,-0.47,0.09,11.22,0,0,0
1117,0.17,0.51,0.14,-0.54,0.23,11.05,0,0,0
1118,0.11,0.42,0.04,-0.60,0.34,10.60,0,0,0
1119,0.06,0.40,-0.00,-0.52,0.31,10.38,0,0,0
1120,0.03,0.38,-0.04,-0.47,0.27,10.15,0,0,0
1121,-0.01,0.37,-0.12,-0.29,0.26,9.97,0,0,0
1122,-0.10,0.37,-0.21,-0.22,0.18,9.95,0,0,0
1123,-0.14,0.38,-0.23,-0.08,0.06,9.96,0,0,0
1124,-0.18,0.44,-0.20,0.20,-0.19,10.11,0,0,0
1125,-0.21,0.54,-0.09,0.28,-0.01,10.09,0,0,0
1126,-0.28,0.69,-0.23,0.05,0.30,9.54,0,0,0
1127,-0.28,0.74,-0.36,-0.12,0.31,9.20,0,0,0
1128,-0.32,0.78,-0.46,-0.47,0.31,8.73,0,0,0
1129,-0.35,0.78,-0.49,-0.66,0.34,8.50,0,0,0
1130,-0.44,0.76,-0.51,-0.88,0.24,8.26,0,0,0
1131,-0.55,0.74,-0.50,-1.04,0.04,8.08,0,0,0
1132,-0.66,0.71,-0.47,-1.17,-0.06,7.92,0,0,0
1133,-0.72,0.70,-0.45,-1.21,-0.10,7.88,0,0,0
1134,-0.81,0.71,-0.42,-1.25,-0.22,7.82,0,0,0
1135,-0.86,0.71,-0.41,-1.35,-0.31,7.79,0,0,0
1136,-0.85,0.72,-0.41,-1.44,-0.43,7.71,0,0,0
1137,-0.79,0.72,-0.46,-1.57,-0.50,7.63,0,0,0
1138,-0.74,0.72,-0.51,-1.60,-0.62,7.65,0,0,0
1139,-0.61,0.75,-0.62,-1.58,-1.06,7.85,0,0,0
1140,-0.56,0.77,-0.67,-1.57,-1.24,7.98,0,0,0
1141,-0.47,0.82,-0.71,-1.52,-1.48,8.14,0,0,0
1142,-0.36,0.93,-0.73,-1.55,-1.68,8.37,0,0,0
1143,-0.33,0.97,-0.74,-1.67,-1.70,8.36,0,0,0
1144,-0.31,1.04,-0.74,-1.89,-1.73,8.10,0,0,0
1145,-0.30,1.09,-0.74,-2.19,-1.76,7.82,0,0,0
1146,-0.27,1.11,-0.77,-2.54,-1.81,7.45,0,0,0
1147,-0.24,1.11,-0.79,-2.69,-1.83,7.23,0,0,0
1148,-0.22,1.11,-0.81,-2.89,-1.90,6.99,0,0,0
1149,-0.21,1.10,-0.85,-3.09,-2.09,6.67,0,0,0
1150,-0.23,1.08,-0.84,-3.30,-2.27,6.52,0,0,0
1151,-0.25,1.05,-0.79,-3.51,-2.34,6.39,0,0,0
1152,-0.26,1.02,-0.72,-3.74,-2.31,6.27,0,0,0
1153,-0.28,0.98,-0.68,-3.90,-2.24,6.22,0,0,0
1154,-0.30,0.95,-0.65,-3.99,-2.23,6.20,0,0,0
1155,-0.30,0.94,-0.64,-4.15,-2.21,6.17,0,0,0
1156,-0.29,0.91,-0.61,-4.23,-2.15,6.24,0,0,0
1157,-0.29,0.89,-0.60,-4.36,-2.08,6.22,0,0,0
1158,-0.28,0.87,-0.60,-4.45,-1.99,6.18,0,0,0
1159,-0.27,0.85,-0.61,-4.57,-2.00,6.12,0,0,0
1160,-0.23,0.81,-0.64,-4.82,-2.08,6.07,0,0,0
1161,-0.16,0.75,-0.67,-4.95,-2.17,6.05,0,0,0
1162,-0.13,0.71,-0.69,-5.05,-2.22,6.09,0,0,0
1163,-0.11,0.65,-0.72,-5.12,-2.34,6.08,0,0,0
1164,-0.14,0.59,-0.72,-5.23,-2.54,6.17,0,0,0
1165,-0.16,0.56,-0.70,-5.32,-2.63,6.19,0,0,0
1166,-0.19,0.51,-0.66,-5.45,-2.74,6.26,0,0,0
1167,-0.20,0.45,-0.64,-5.58,-2.79,6.26,0,0,0
1168,-0.21,0.38,-0.62,-5.73,-2.85,6.26,0,0,0
1169,-0.21,0.34,-0.63,-5.84,-3.01,6.23,0,0,0
1170,-0.20,0.26,-0.60,-5.95,-3.19,6.31,0,0,0
1171,-0.18,0.22,-0.58,-5.92,-3.25,6.32,0,0,0
1172,-0.14,0.17,-0.56,-5.95,-3.16,6.35,0,0,0
1173,-0.11,0.11,-0.62,-6.28,-3.44,6.29,0,0,0
1174,-0.08,0.03,-0.64,-6.26,-3.76,6.31,0,0,0
1175,-0.05,-0.06,-0.64,-6.20,-3.97,6.52,0,0,0
1176,-0.07,-0.10,-0.62,-6.21,-4.12,6.61,0,0,0
1177,-0.08,-0.12,-0.58,-6.12,-4.27,6.66,0,0,0
1178,-0.09,-0.16,-0.55,-6.19,-4.38,6.66,0,0,0
1179,-0.07,-0.18,-0.55,-6.21,-4.48,6.70,0,0,0
1180,0.00,-0.23,-0.52,-6.01,-4.57,6.79,0,0,0
1181,0.02,-0.22,-0.48,-5.89,-4.55,6.84,0,0,0
1182,0.02,-0.19,-0.44,-5.77,-4.64,6.87,0,0,0
1183,0.02,-0.17,-0.39,-5.74,-4.81,6.87,0,0,0
1184,0.04,-0.17,-0.31,-5.66,-4.89,6.85,0,0,0
1185,0.06,-0.17,-0.26,-5.60,-4.90,6.80,0,0,0
1186,0.08,-0.17,-0.16,-5.53,-4.96,6.78,0,0,0
1187,0.10,-0.17,-0.05,-5.40,-4.90,6.81,0,0,0
1188,0.11,-0.18,0.08,-5.33,-4.79,6.90,0,0,0
1189,0.11,-0.19,0.17,-5.22,-4.62,6.87,0,0,0
1190,0.10,-0.20,0.24,-5.21,-4.42,6.82,0,0,0
1191,0.07,-0.21,0.30,-5.16,-4.31,6.86,0,0,0
1192,0.05,-0.22,0.32,-5.13,-4.25,6.90,0,0,0
1193,0.01,-0.23,0.38,-5.04,-4.06,7.00,0,0,0
1194,-0.05,-0.23,0.44,-5.01,-4.05,7.09,0,0,0
1195,-0.09,-0.23,0.50,-5.01,-4.03,7.09,0,0,0
1196,-0.13,-0.23,0.57,-5.04,-3.98,7.05,0,0,0
1197,-0.19,-0.23,0.68,-5.10,-3.78,6.96,0,0,0
1198,-0.22,-0.25,0.73,-5.20,-3.56,6.92,0,0,0
1199,-0.21,-0.29,0.73,-5.29,-3.41,6.84,0,0,0
1200,-0.21,-0.31,0.72,-5.30,-3.37,6.85,0,0,0
1201,-0.20,-0.33,0.70,-5.28,-3.37,6.86,0,0,0
1202,-0.17,-0.37,0.68,-5.23,-3.44,6.93,0,0,0
1203,-0.12,-0.41,0.66,-5.14,-3.48,7.05,0,0,0
1204,-0.06,-0.43,0.64,-5.06,-3.48,7.19,0,0,0
1205,-0.01,-0.44,0.61,-4.99,-3.54,7.41,0,0,0
1206,0.01,-0.44,0.59,-4.93,-3.59,7.51,0,0,0
1207,0.02,-0.44,0.60,-4.85,-3.68,7.61,0,0,0
1208,0.02,-0.44,0.61,-4.87,-3.71,7.62,0,0,0
1209,0.03,-0.44,0.63,-4.86,-3.65,7.58,0,0,0
1210,0.05,-0.56,0.63,-4.56,-3.15,7.69,0,0,0
1211,0.07,-0.58,0.62,-4.47,-3.22,7.75,0,0,0
1212,0.11,-0.60,0.62,-4.33,-3.30,7.84,0,0,0
1213,0.11,-0.60,0.63,-4.17,-3.31,7.95,0,0,0
1214,0.09,-0.60,0.67,-4.10,-3.26,8.00,0,0,0
1215,0.01,-0.57,0.74,-4.00,-3.06,7.93,0,0,0
1216,0.01,-0.57,0.75,-3.99,-2.98,7.89,0,0,0
1217,-0.00,-0.56,0.75,-4.03,-2.84,7.83,0,0,0
1218,-0.00,-0.56,0.75,-4.05,-2.80,7.75,0,0,0
1219,0.01,-0.57,0.75,-4.07,-2.77,7.66,0,0,0
1220,0.07,-0.64,0.72,-4.00,-2.72,7.37,0,0,0
1221,0.11,-0.67,0.71,-3.93,-2.63,7.41,0,0,0
1222,0.17,-0.71,0.71,-3.81,-2.45,7.47,0,0,0
1223,0.17,-0.75,0.68,-3.65,-2.25,7.33,0,0,0
1224,0.18,-0.77,0.66,-3.58,-2.19,7.30,0,0,0
1225,0.56,-0.98,0.32,-2.57,-1.58,7.69,0,0,0
1226,0.58,-0.99,0.29,-2.36,-1.53,7.88,0,0,0
1227,0.59,-1.00,0.26,-2.19,-1.48,8.03,0,0,0
1228,0.57,-1.00,0.27,-2.05,-1.46,8.02,0,0,0
1229,0.56,-1.01,0.30,-2.00,-1.36,7.95,0,0,0
1230,0.53,-1.03,0.33,-1.89,-1.16,7.95,0,0,0
1231,0.50,-1.05,0.34,-1.74,-0.94,8.00,0,0,0
1232,0.48,-1.07,0.34,-1.63,-0.81,7.95,0,0,0
1233,0.48,-1.11,0.31,-1.52,-0.68,7.99,0,0,0
1234,0.47,-1.12,0.30,-1.41,-0.62,8.10,0,0,0
1235,0.45,-1.14,0.28,-1.19,-0.53,8.33,0,0,0
1236,0.38,-1.13,0.27,-0.96,-0.51,8.55,0,0,0
1237,0.29,-1.13,0.29,-0.79,-0.56,8.59,0,0,0
1238,0.22,-1.14,0.32,-0.63,-0.53,8.47,0,0,0
1239,0.20,-1.14,0.32,-0.47,-0.48,8.58,0,0,0
1240,0.21,-1.13,0.29,-0.30,-0.42,8.74,0,0,0
1241,0.20,-1.11,0.25,-0.04,-0.36,8.97,0,0,0
1242,0.12,-1.04,0.22,0.17,-0.46,9.19,0,0,0
1243,-0.05,-0.95,0.29,0.23,-0.31,9.15,0,0,0
1244,-0.10,-0.94,0.32,0.19,-0.24,9.06,0,0,0
1245,-0.15,-0.94,0.33,0.17,-0.06,8.94,0,0,0
1246,-0.14,-0.96,0.28,0.28,0.01,9.04,0,0,0
1247,-0.06,-0.95,0.15,0.56,-0.04,9.41,0,0,0
1248,-0.03,-0.92,0.08,0.74,-0.13,9.67,0,0,0
1249,0.00,-0.80,-0.02,0.94,-0.44,10.30,0,0,0
1250,-0.08,-0.72,0.01,0.85,-0.71,10.37,0,0,0
1251,-0.24,-0.66,0.12,0.60,-0.94,10.00,0,0,0
1252,-0.52,-0.71,0.45,0.21,-0.67,8.95,0,0,0
1253,-0.50,-0.76,0.41,0.39,-0.28,9.15,0,0,0
1254,-0.22,-0.79,0.04,1.05,-0.14,10.15,0,0,0
1255,0.13,-0.64,-0.34,1.71,-0.80,11.33,0,0,0
1256,0.28,-0.47,-0.50,1.93,-1.25,12.17,0,0,0
1257,0.30,-0.31,-0.52,1.85,-1.41,12.34,0,0,0
1258,0.21,-0.21,-0.42,1.66,-1.43,11.97,0,0,0
1259,0.09,-0.15,-0.31,1.28,-1.42,11.52,0,0,0
1260,0.02,-0.14,-0.21,1.06,-1.27,11.15,0,0,0
1261,0.01,-0.14,-0.19,0.95,-1.13,11.18,0,0,0
1262,0.01,-0.15,-0.20,0.97,-1.07,11.61,0,0,0
1263,0.06,-0.12,-0.20,1.02,-1.27,12.20,0,0,0
1264,0.13,-0.09,-0.16,1.00,-1.24,12.52,0,0,0
1265,0.11,-0.01,-0.15,0.83,-1.26,12.97,0,0,0
1266,0.08,0.01,-0.12,0.76,-1.33,12.98,0,0,0
1267,-0.02,0.07,0.02,0.37,-1.39,12.72,0,0,0
1268,-0.06,0.08,0.07,0.12,-1.33,12.55,0,0,0
1269,-0.09,0.08,0.08,-0.27,-1.52,12.24,0,0,0
1270,-0.08,0.09,0.09,-0.32,-1.63,12.21,0,0,0
1271,0.00,0.10,0.10,-0.45,-1.80,12.04,0,0,0
1272,0.12,0.14,0.09,-0.61,-2.01,11.77,0,0,0
1273,0.20,0.18,0.11,-0.77,-2.07,11.50,0,0,0
1274,0.23,0.21,0.16,-0.88,-2.11,11.30,0,0,0
1275,0.28,0.24,0.30,-1.15,-1.96,10.83,0,0,0
1276,0.30,0.24,0.37,-1.32,-1.70,10.60,0,0,0
1277,0.29,0.24,0.44,-1.52,-1.32,10.32,0,0,0
1278,0.27,0.23,0.48,-1.63,-1.07,10.17,0,0,0
1279,0.20,0.20,0.51,-1.83,-0.59,9.92,0,0,0
1280,0.13,0.13,0.51,-1.97,-0.21,9.50,0,0,0
1281,0.12,0.09,0.48,-1.98,-0.17,9.35,0,0,0
1282,0.13,0.02,0.41,-1.93,-0.31,9.18,0,0,0
1283,0.15,-0.02,0.36,-1.86,-0.47,9.16,0,0,0
1284,0.23,-0.07,0.29,-1.63,-0.77,9.36,0,0,0
1285,0.28,-0.09,0.25,-1.46,-0.98,9.55,0,0,0
1286,0.38,-0.09,0.21,-1.16,-1.34,9.98,0,0,0
1287,0.42,-0.07,0.20,-1.03,-1.48,10.12,0,0,0
1288,0.49,-0.01,0.22,-0.83,-1.65,10.24,0,0,0
1289,0.51,0.02,0.26,-0.78,-1.60,10.23,0,0,0
1290,0.51,0.06,0.30,-0.76,-1.54,10.16,0,0,0
1291,0.49,0.11,0.37,-0.78,-1.28,10.12,0,0,0
1292,0.47,0.15,0.42,-0.79,-1.06,10.02,0,0,0
1293,0.44,0.17,0.45,-0.85,-0.84,9.90,0,0,0
1294,0.37,0.18,0.48,-1.04,-0.60,9.57,0,0,0
1295,0.33,0.17,0.49,-1.13,-0.59,9.32,0,0,0
1296,0.31,0.13,0.48,-1.23,-0.64,9.05,0,0,0
1297,0.31,0.10,0.48,-1.21,-0.61,8.97,0,0,0
1298,0.30,0.04,0.46,-0.99,-0.55,8.95,0,0,0
1299,0.31,0.01,0.41,-0.72,-0.68,9.15,0,0,0
1300,0.36,0.01,0.37,-0.45,-0.82,9.37,0,0,0
1301,0.38,0.03,0.37,-0.33,-0.79,9.41,0,0,0
1302,0.41,0.06,0.39,-0.22,-0.55,9.41,0,0,0
1303,0.42,0.09,0.39,-0.15,-0.20,9.34,0,0,0
1304,0.40,0.11,0.37,-0.08,0.13,9.10,0,0,0
1305,0.39,0.11,0.34,-0.02,0.18,8.98,0,0,0
1306,0.38,0.12,0.30,0.04,0.13,8.89,0,0,0
1307,0.38,0.12,0.26,0.12,0.03,8.81,0,0,0
1308,0.39,0.11,0.23,0.18,-0.13,8.73,0,0,0
1309,0.40,0.11,0.20,0.26,-0.30,8.70,0,0,0
1310,0.42,0.10,0.21,0.36,-0.34,8.70,0,0,0
1311,0.42,0.10,0.21,0.44,-0.23,8.76,0,0,0
1312,0.42,0.09,0.19,0.48,-0.08,8.79,0,0,0
1313,0.41,0.09,0.19,0.59,0.07,8.91,0,0,0
1314,0.40,0.11,0.18,0.69,0.26,9.12,0,0,0
1315,0.39,0.13,0.15,0.74,0.36,9.27,0,0,0
1316,0.37,0.14,0.14,0.73,0.37,9.25,0,0,0
1317,0.32,0.18,0.12,0.71,0.31,9.14,0,0,0
1318,0.29,0.18,0.12,0.70,0.29,9.07,0,0,0
1319,0.22,0.18,0.13,0.69,0.16,8.79,0,0,0
1320,0.21,0.17,0.14,0.67,0.09,8.69,0,0,0
1321,0.19,0.16,0.15,0.60,0.04,8.57,0,0,0
1322,0.19,0.12,0.17,0.57,0.02,8.51,0,0,0
1323,0.18,0.09,0.17,0.60,0.00,8.59,0,0,0
1324,0.15,0.04,0.17,0.76,0.02,8.85,0,0,0
1325,0.13,0.04,0.19,0.93,0.07,9.05,0,0,0
1326,0.15,0.06,0.18,1.00,0.17,9.19,0,0,0
1327,0.16,0.08,0.17,1.03,0.29,9.22,0,0,0
1328,0.15,0.09,0.16,1.05,0.42,9.26,0,0,0
1329,0.14,0.11,0.15,1.08,0.52,9.28,0,0,0
1330,0.11,0.14,0.13,1.10,0.57,9.26,0,0,0
1331,0.10,0.17,0.10,1.11,0.51,9.19,0,0,0
1332,0.09,0.19,0.10,1.00,0.54,9.01,0,0,0
1333,0.08,0.19,0.11,0.92,0.59,8.92,0,0,0
1334,0.04,0.19,0.14,0.81,0.73,8.76,0,0,0
1335,-0.00,0.17,0.15,0.67,0.93,8.62,0,0,0
1336,-0.04,0.15,0.15,0.57,1.25,8.49,0,0,0
1337,-0.10,0.13,0.10,0.42,1.55,8.38,0,0,0
1338,-0.13,0.10,0.03,0.27,1.54,8.32,0,0,0
1339,-0.14,0.07,-0.02,0.19,1.50,8.27,0,0,0
1340,-0.16,0.05,-0.05,0.13,1.39,8.19,0,0,0
1341,-0.16,0.03,-0.07,0.08,1.22,8.15,0,0,0
1342,-0.16,0.02,-0.07,0.04,1.16,8.14,0,0,0
1343,-0.17,0.01,-0.06,0.02,1.17,8.16,0,0,0
1344,-0.19,-0.01,-0.05,-0.04,1.35,8.15,0,0,0
1345,-0.21,-0.03,-0.05,-0.06,1.42,8.12,0,0,0
1346,-0.23,-0.05,-0.07,-0.07,1.41,8.13,0,0,0
1347,-0.24,-0.06,-0.10,-0.04,1.38,8.16,0,0,0
1348,-0.25,-0.09,-0.16,0.06,1.17,8.31,0,0,0
1349,-0.23,-0.10,-0.21,0.20,0.90,8.48,0,0,0
1350,-0.20,-0.09,-0.24,0.32,0.64,8.78,0,0,0
1351,-0.18,-0.08,-0.24,0.35,0.47,8.94,0,0,0
1352,-0.18,-0.07,-0.24,0.35,0.40,8.96,0,0,0
1353,-0.18,-0.06,-0.24,0.35,0.32,9.01,0,0,0
1354,-0.17,-0.04,-0.23,0.32,0.25,9.06,0,0,0
1355,-0.17,-0.04,-0.22,0.28,0.22,9.07,0,0,0
1356,-0.17,-0.03,-0.19,0.14,0.27,9.00,0,0,0
1357,-0.17,-0.03,-0.18,0.08,0.30,8.97,0,0,0
1358,-0.18,-0.03,-0.18,0.01,0.35,8.95,0,0,0
1359,-0.21,-0.04,-0.19,-0.06,0.39,8.93,0,0,0
1360,-0.27,-0.06,-0.22,-0.11,0.26,9.00,0,0,0
1361,-0.34,-0.07,-0.23,-0.16,0.07,8.96,0,0,0
1362,-0.39,-0.08,-0.20,-0.21,-0.02,8.94,0,0,0
1363,-0.41,-0.09,-0.19,-0.23,-0.06,9.06,0,0,0
1364,-0.42,-0.09,-0.18,-0.26,-0.07,9.13,0,0,0
1365,-0.41,-0.08,-0.21,-0.21,-0.12,9.37,0,0,0
1366,-0.39,-0.06,-0.24,-0.21,-0.14,9.54,0,0,0
1367,-0.30,-0.02,-0.35,-0.26,-0.40,9.71,0,0,0
1368,-0.26,-0.01,-0.38,-0.30,-0.53,9.73,0,0,0
1369,-0.22,0.00,-0.41,-0.35,-0.61,9.74,0,0,0
1370,-0.18,0.01,-0.42,-0.46,-0.71,9.77,0,0,0
1371,-0.16,0.00,-0.41,-0.48,-0.77,9.86,0,0,0
1372,-0.19,-0.01,-0.35,-0.59,-0.64,9.89,0,0,0
1373,-0.24,-0.01,-0.28,-0.72,-0.44,9.94,0,0,0
1374,-0.28,-0.02,-0.26,-0.77,-0.37,9.97,0,0,0
1375,-0.34,-0.02,-0.25,-0.78,-0.40,10.06,0,0,0
1376,-0.37,0.01,-0.26,-0.76,-0.49,10.19,0,0,0
1377,-0.37,0.04,-0.25,-0.84,-0.54,10.06,0,0,0
1378,-0.36,0.05,-0.25,-0.85,-0.55,10.01,0,0,0
1379,-0.32,0.07,-0.25,-0.92,-0.46,9.88,0,0,0
1380,-0.27,0.08,-0.27,-1.00,-0.34,9.84,0,0,0
1381,-0.21,0.09,-0.33,-0.90,-0.42,10.05,0,0,0
1382,-0.17,0.15,-0.43,-1.14,-0.79,10.13,0,0,0
1383,-0.20,0.17,-0.39,-1.27,-1.03,9.89,0,0,0
1384,-0.24,0.19,-0.34,-1.60,-1.15,9.47,0,0,0
1385,-0.30,0.16,-0.21,-1.74,-1.40,9.38,0,0,0
1386,-0.35,0.07,-0.06,-1.94,-1.29,8.96,0,0,0
1387,-0.36,0.02,-0.02,-1.96,-1.16,8.90,0,0,0
1388,-0.20,-0.09,-0.07,-1.50,-0.85,9.61,0,0,0
1389,-0.02,-0.10,-0.18,-1.25,-0.83,10.11,0,0,0
1390,0.16,-0.08,-0.24,-0.93,-0.74,10.75,0,0,0
1391,0.22,-0.06,-0.24,-0.79,-0.70,10.94,0,0,0
1392,0.29,-0.01,-0.24,-0.68,-0.49,11.22,0,0,0
1393,0.31,0.02,-0.24,-0.59,-0.36,11.43,0,0,0
1394,0.25,0.05,-0.20,-0.54,-0.38,11.45,0,0,0
1395,0.18,0.08,-0.15,-0.55,-0.41,11.38,0,0,0
1396,0.13,0.09,-0.12,-0.57,-0.33,11.36,0,0,0
1397,0.03,0.11,-0.10,-0.46,-0.29,11.25,0,0,0
1398,-0.04,0.14,-0.09,-0.39,-0.34,11.25,0,0,0
1399,-0.08,0.19,-0.09,-0.30,-0.38,11.28,0,0,0
1400,-0.10,0.26,-0.09,-0.27,-0.37,11.16,0,0,0
1401,-0.11,0.33,-0.11,-0.32,-0.39,10.91,0,0,0
1402,-0.11,0.36,-0.14,-0.35,-0.45,10.72,0,0,0
1403,-0.12,0.40,-0.16,-0.45,-0.50,10.52,0,0,0
1404,-0.11,0.43,-0.18,-0.53,-0.59,10.29,0,0,0
1405,-0.10,0.46,-0.21,-0.64,-0.74,9.88,0,0,0
1406,-0.09,0.48,-0.23,-0.73,-0.84,9.63,0,0,0
1407,-0.07,0.48,-0.24,-0.82,-0.93,9.39,0,0,0
1408,0.06,0.41,-0.21,-1.34,-0.79,8.50,0,0,0
1409,0.09,0.37,-0.22,-1.27,-0.77,8.58,0,0,0
1410,0.15,0.34,-0.24,-1.23,-0.79,8.86,0,0,0
1411,0.17,0.33,-0.23,-1.20,-0.73,8.97,0,0,0
1412,0.19,0.32,-0.23,-1.17,-0.70,9.03,0,0,0
1413,0.21,0.32,-0.23,-1.08,-0.63,9.22,0,0,0
1414,0.22,0.33,-0.24,-1.06,-0.62,9.36,0,0,0
1415,0.21,0.32,-0.24,-1.13,-0.57,9.47,0,0,0
1416,0.11,0.30,-0.20,-1.19,-0.47,9.53,0,0,0
1417,0.06,0.29,-0.19,-1.20,-0.50,9.57,0,0,0
1418,-0.04,0.28,-0.16,-1.20,-0.59,9.57,0,0,0
1419,-0.08,0.28,-0.15,-1.23,-0.65,9.64,0,0,0
1420,-0.19,0.25,-0.09,-1.44,-0.76,9.83,0,0,0
1421,-0.18,0.25,-0.09,-1.45,-0.82,9.94,0,0,0
1422,-0.15,0.24,-0.10,-1.44,-0.98,10.08,0,0,0
1423,-0.12,0.24,-0.10,-1.43,-1.10,10.14,0,0,0
1424,-0.08,0.24,-0.10,-1.44,-1.20,10.17,0,0,0
1425,-0.04,0.23,-0.09,-1.48,-1.22,10.20,0,0,0
1426,-0.01,0.22,-0.06,-1.55,-1.22,10.18,0,0,0
1427,0.02,0.21,-0.04,-1.59,-1.19,10.19,0,0,0
1428,0.06,0.18,-0.02,-1.65,-1.10,10.19,0,0,0
1429,0.08,0.16,-0.01,-1.63,-1.07,10.22,0,0,0
1430,0.11,0.14,0.00,-1.53,-1.13,10.37,0,0,0
1431,0.10,0.13,0.04,-1.51,-1.14,10.46,0,0,0
1432,0.09,0.12,0.07,-1.55,-1.10,10.46,0,0,0
1433,0.08,0.11,0.10,-1.60,-1.01,10.37,0,0,0
1434,0.05,0.09,0.14,-1.68,-0.91,10.23,0,0,0
1435,0.03,0.06,0.15,-1.72,-0.83,10.07,0,0,0
1436,0.04,0.05,0.15,-1.72,-0.85,10.02,0,0,0
1437,0.07,0.04,0.15,-1.75,-0.88,9.93,0,0,0
1438,0.09,0.03,0.15,-1.75,-0.87,9.88,0,0,0
1439,0.11,0.01,0.17,-1.76,-0.77,9.86,0,0,0
1440,0.12,0.01,0.17,-1.77,-0.69,9.88,0,0,0
1441,0.14,0.00,0.17,-1.77,-0.51,9.91,0,0,0
1442,0.14,-0.00,0.17,-1.75,-0.37,9.93,0,0,0
1443,0.14,0.01,0.16,-1.69,-0.18,10.00,0,0,0
1444,0.13,0.01,0.14,-1.70,-0.01,10.09,0,0,0
1445,0.12,0.02,0.12,-1.71,0.16,10.07,0,0,0
1446,0.10,0.03,0.09,-1.74,0.27,10.08,0,0,0
1447,0.07,0.04,0.07,-1.78,0.33,10.02,0,0,0
1448,0.01,0.04,0.04,-1.77,0.31,9.98,0,0,0
1449,-0.02,0.04,0.04,-1.74,0.20,9.95,0,0,0
1450,-0.07,0.04,0.03,-1.70,0.03,9.96,0,0,0
1451,-0.09,0.04,0.02,-1.63,-0.07,9.98,0,0,0
1452,-0.08,0.08,0.00,-1.60,-0.33,9.91,0,0,0
1453,-0.07,0.08,0.00,-1.72,-0.37,9.73,0,0,0
1454,-0.07,0.06,-0.00,-1.92,-0.42,9.35,0,0,0
1455,-0.08,0.04,-0.01,-1.99,-0.48,9.15,0,0,0
1456,-0.08,0.00,-0.01,-2.03,-0.71,8.96,0,0,0
1457,-0.08,-0.04,-0.00,-2.06,-0.92,8.88,0,0,0
1458,-0.06,-0.08,0.02,-1.98,-1.05,8.84,0,0,0
1459,-0.02,-0.13,0.07,-1.81,-1.00,9.07,0,0,0
1460,-0.01,-0.14,0.08,-1.74,-0.96,9.19,0,0,0
1461,0.02,-0.14,0.09,-1.63,-0.89,9.36,0,0,0
1462,0.04,-0.14,0.09,-1.60,-0.81,9.45,0,0,0
1463,0.06,-0.14,0.09,-1.57,-0.80,9.51,0,0,0
1464,0.09,-0.13,0.10,-1.53,-0.81,9.62,0,0,0
1465,0.11,-0.12,0.11,-1.55,-0.70,9.71,0,0,0
1466,0.10,-0.12,0.12,-1.56,-0.61,9.71,0,0,0
1467,0.10,-0.12,0.12,-1.53,-0.54,9.77,0,0,0
1468,0.09,-0.11,0.12,-1.54,-0.45,9.84,0,0,0
1469,0.09,-0.11,0.11,-1.57,-0.35,9.84,0,0,0
1470,0.09,-0.11,0.10,-1.59,-0.25,9.81,0,0,0
1471,0.09,-0.11,0.08,-1.52,-0.23,9.86,0,0,0
1472,0.11,-0.09,0.06,-1.41,-0.24,9.95,0,0,0
1473,0.12,-0.06,0.04,-1.38,-0.24,9.98,0,0,0
1474,0.13,-0.05,0.04,-1.41,-0.16,9.89,0,0,0
1475,0.13,-0.04,0.03,-1.46,-0.09,9.86,0,0,0
1476,0.11,-0.03,0.03,-1.48,-0.05,9.84,0,0,0
1477,0.07,-0.04,0.02,-1.53,0.02,9.78,0,0,0
1478,0.05,-0.04,0.02,-1.52,0.03,9.72,0,0,0
1479,0.04,-0.05,0.02,-1.48,0.02,9.72,0,0,0
1480,0.02,-0.04,0.01,-1.38,-0.04,9.76,0,0,0
1481,0.02,-0.03,-0.00,-1.26,-0.11,9.87,0,0,0
1482,0.03,-0.02,-0.01,-1.26,-0.11,9.90,0,0,0
1483,0.05,-0.00,-0.03,-1.30,-0.15,9.86,0,0,0
1484,0.05,0.00,-0.03,-1.37,-0.19,9.73,0,0,0
1485,0.04,-0.00,-0.02,-1.43,-0.22,9.64,0,0,0
1486,0.03,-0.00,-0.02,-1.43,-0.20,9.61,0,0,0
1487,0.02,0.00,-0.02,-1.38,-0.21,9.62,0,0,0
1488,0.02,0.01,-0.03,-1.40,-0.27,9.63,0,0,0
1489,0.02,0.02,-0.03,-1.41,-0.28,9.66,0,0,0
1490,0.01,0.01,-0.03,-1.45,-0.31,9.63,0,0,0
1491,0.01,0.01,-0.02,-1.51,-0.31,9.57,0,0,0
1492,-0.01,0.01,-0.02,-1.51,-0.34,9.54,0,0,0
1493,-0.01,0.00,-0.01,-1.51,-0.35,9.56,0,0,0
1494,-0.00,-0.00,-0.01,-1.47,-0.39,9.59,0,0,0
1495,0.02,0.00,-0.02,-1.45,-0.33,9.67,0,0,0
1496,0.02,0.01,-0.02,-1.44,-0.29,9.69,0,0,0
1497,0.02,0.01,-0.02,-1.49,-0.25,9.61,0,0,0
1498,0.01,-0.00,-0.03,-1.52,-0.25,9.56,0,0,0
1499,0.01,-0.01,-0.03,-1.50,-0.28,9.53,0,0,0
1500,0.01,-0.01,-0.03,-1.50,-0.24,9.53,0,0,0
1501,0.01,-0.01,-0.03,-1.50,-0.24,9.56,0,0,0
1502,0.01,-0.02,-0.03,-1.44,-0.24,9.60,0,0,0
1503,0.02,-0.01,-0.04,-1.35,-0.33,9.60,0,0,0
1504,0.03,0.01,-0.03,-1.41,-0.27,9.54,0,0,0
1505,0.03,0.00,-0.03,-1.45,-0.24,9.48,0,0,0
1506,0.02,-0.01,-0.03,-1.60,-0.15,9.40,0,0,0
1507,0.01,-0.02,-0.03,-1.63,-0.13,9.38,0,0,0
1508,-0.00,-0.04,-0.03,-1.62,-0.15,9.39,0,0,0
1509,-0.01,-0.04,-0.03,-1.56,-0.21,9.41,0,0,0
1510,-0.01,-0.05,-0.03,-1.45,-0.27,9.53,0,0,0
1511,-0.01,-0.05,-0.03,-1.42,-0.30,9.59,0,0,0
1512,-0.02,-0.04,-0.03,-1.37,-0.33,9.66,0,0,0
1513,-0.02,-0.04,-0.03,-1.35,-0.37,9.69,0,0,0
1514,-0.02,-0.01,-0.02,-1.31,-0.41,9.71,0,0,0
1515,-0.01,-0.01,-0.02,-1.36,-0.42,9.70,0,0,0
1516,-0.01,-0.01,-0.01,-1.48,-0.42,9.60,0,0,0
1517,-0.00,-0.02,-0.00,-1.45,-0.43,9.62,0,0,0
1518,0.00,-0.02,-0.00,-1.41,-0.40,9.64,0,0,0
1519,0.01,-0.02,-0.00,-1.39,-0.31,9.68,0,0,0
1520,0.01,-0.01,-0.00,-1.35,-0.25,9.70,0,0,0
1521,0.00,-0.01,-0.01,-1.35,-0.23,9.72,0,0,0
1522,0.00,-0.00,-0.01,-1.39,-0.21,9.67,0,0,0
1523,0.00,-0.00,-0.02,-1.39,-0.25,9.60,0,0,0
1524,0.00,-0.00,-0.02,-1.39,-0.28,9.59,0,0,0
1525,0.01,0.00,-0.02,-1.40,-0.29,9.59,0,0,0
1526,0.02,0.00,-0.02,-1.42,-0.28,9.56,0,0,0
1527,0.03,-0.00,-0.03,-1.47,-0.25,9.45,0,0,0
1528,0.03,-0.02,-0.03,-1.51,-0.22,9.40,0,0,0
1529,0.03,-0.03,-0.03,-1.54,-0.21,9.38,0,0,0
1530,0.01,-0.05,-0.02,-1.52,-0.18,9.34,0,0,0
1531,0.01,-0.05,-0.02,-1.43,-0.20,9.40,0,0,0
1532,0.01,-0.05,-0.02,-1.35,-0.23,9.52,0,0,0
1533,0.01,-0.05,-0.02,-1.33,-0.27,9.57,0,0,0
1534,0.01,-0.05,-0.02,-1.33,-0.29,9.60,0,0,0
1535,-0.00,-0.05,-0.02,-1.33,-0.32,9.56,0,0,0
1536,-0.02,-0.05,-0.01,-1.39,-0.33,9.51,0,0,0
1537,-0.03,-0.05,-0.00,-1.38,-0.32,9.53,0,0,0
1538,-0.04,-0.05,-0.01,-1.36,-0.36,9.61,0,0,0
1539,-0.04,-0.04,-0.01,-1.33,-0.36,9.67,0,0,0
1540,-0.03,-0.04,-0.00,-1.29,-0.35,9.76,0,0,0
1541,-0.03,-0.03,-0.00,-1.27,-0.35,9.80,0,0,0
1542,-0.03,-0.03,-0.00,-1.28,-0.38,9.78,0,0,0
1543,-0.03,-0.02,0.00,-1.29,-0.38,9.79,0,0,0
1544,-0.03,-0.01,0.01,-1.34,-0.32,9.73,0,0,0
1545,-0.04,-0.01,0.01,-1.36,-0.31,9.68,0,0,0
1546,-0.03,-0.01,0.00,-1.37,-0.30,9.66,0,0,0
1547,-0.03,-0.01,0.00,-1.37,-0.30,9.67,0,0,0
1548,-0.02,-0.01,0.00,-1.37,-0.29,9.71,0,0,0
1549,-0.03,-0.02,0.01,-1.35,-0.23,9.69,0,0,0
1550,-0.05,-0.01,0.00,-1.33,-0.22,9.71,0,0,0
1551,-0.05,-0.01,0.00,-1.31,-0.22,9.74,0,0,0
1552,-0.06,-0.00,-0.01,-1.26,-0.27,9.78,0,0,0
1553,-0.05,0.01,-0.01,-1.25,-0.29,9.74,0,0,0
1554,-0.04,0.01,-0.01,-1.27,-0.30,9.72,0,0,0
1555,-0.05,0.01,-0.01,-1.31,-0.29,9.68,0,0,0
1556,-0.06,0.01,-0.00,-1.34,-0.29,9.60,0,0,0
1557,-0.07,0.00,0.00,-1.33,-0.30,9.59,0,0,0
1558,-0.08,-0.00,0.00,-1.32,-0.29,9.57,0,0,0
1559,-0.09,-0.00,0.01,-1.34,-0.28,9.56,0,0,0
1560,-0.09,-0.01,-0.00,-1.38,-0.31,9.52,0,0,0
1561,-0.09,-0.01,-0.00,-1.42,-0.32,9.49,0,0,0
1562,-0.08,-0.02,-0.01,-1.39,-0.40,9.40,0,0,0
1563,-0.07,-0.03,-0.01,-1.34,-0.44,9.43,0,0,0
1564,-0.04,-0.02,-0.02,-1.22,-0.54,9.64,0,0,0
1565,-0.03,-0.01,-0.02,-1.18,-0.56,9.70,0,0,0
1566,-0.02,0.00,-0.02,-1.16,-0.52,9.74,0,0,0
1567,-0.02,0.01,-0.01,-1.21,-0.49,9.75,0,0,0
1568,-0.03,0.02,-0.00,-1.28,-0.46,9.70,0,0,0
1569,-0.03,0.02,0.00,-1.31,-0.43,9.67,0,0,0
1570,-0.05,0.01,0.00,-1.38,-0.39,9.61,0,0,0
1571,-0.05,0.01,-0.00,-1.38,-0.36,9.59,0,0,0
1572,-0.05,0.00,-0.01,-1.39,-0.36,9.59,0,0,0
1573,-0.05,-0.00,-0.01,-1.41,-0.40,9.59,0,0,0
1574,-0.03,-0.00,-0.02,-1.34,-0.37,9.59,0,0,0
1575,-0.03,0.00,-0.02,-1.32,-0.39,9.63,0,0,0
1576,-0.01,0.01,-0.03,-1.30,-0.43,9.69,0,0,0
1577,-0.01,0.02,-0.04,-1.32,-0.45,9.72,0,0,0
1578,-0.01,0.02,-0.03,-1.39,-0.46,9.62,0,0,0
1579,-0.02,0.02,-0.02,-1.39,-0.46,9.64,0,0,0
1580,-0.03,0.01,-0.01,-1.39,-0.47,9.63,0,0,0
1581,-0.03,0.01,-0.01,-1.41,-0.44,9.61,0,0,0
1582,-0.04,0.01,-0.01,-1.42,-0.45,9.58,0,0,0
1583,-0.03,-0.00,-0.02,-1.45,-0.49,9.52,0,0,0
1584,-0.03,-0.01,-0.02,-1.43,-0.51,9.47,0,0,0
1585,-0.02,-0.01,-0.02,-1.41,-0.51,9.49,0,0,0
1586,-0.02,-0.01,-0.02,-1.35,-0.53,9.52,0,0,0
1587,-0.00,-0.01,-0.03,-1.32,-0.57,9.53,0,0,0
1588,0.00,-0.01,-0.02,-1.32,-0.56,9.56,0,0,0
1589,0.00,-0.00,-0.01,-1.31,-0.56,9.55,0,0,0
1590,-0.00,-0.00,-0.01,-1.31,-0.56,9.53,0,0,0
1591,-0.01,-0.01,0.00,-1.36,-0.56,9.53,0,0,0
1592,-0.01,-0.01,0.01,-1.34,-0.50,9.52,0,0,0
1593,-0.01,-0.01,0.01,-1.34,-0.49,9.55,0,0,0
1594,-0.00,-0.02,-0.00,-1.33,-0.50,9.59,0,0,0
1595,-0.00,-0.02,-0.00,-1.35,-0.47,9.65,0,0,0
1596,-0.01,-0.02,-0.00,-1.35,-0.48,9.64,0,0,0
1597,-0.01,-0.02,-0.00,-1.35,-0.50,9.63,0,0,0
1598,-0.01,-0.03,0.00,-1.38,-0.49,9.60,0,0,0
1599,-0.00,-0.03,0.00,-1.33,-0.49,9.61,0,0,0
1600,0.01,-0.02,-0.00,-1.30,-0.48,9.68,0,0,0
1601,0.02,-0.01,-0.01,-1.27,-0.47,9.69,0,0,0
1602,0.02,-0.01,-0.01,-1.25,-0.46,9.71,0,0,0
1603,0.02,-0.00,-0.01,-1.30,-0.44,9.70,0,0,0
1604,0.01,-0.01,-0.00,-1.31,-0.39,9.65,0,0,0
1605,0.00,-0.01,0.00,-1.32,-0.37,9.61,0,0,0
1606,-0.01,-0.01,0.00,-1.35,-0.35,9.58,0,0,0
1607,-0.01,-0.01,-0.00,-1.36,-0.35,9.55,0,0,0
1608,-0.01,-0.02,-0.01,-1.33,-0.39,9.53,0,0,0
1609,-0.02,-0.02,-0.01,-1.34,-0.41,9.51,0,0,0
