Packet number,Gyroscope X (deg/s),Gyroscope Y(deg/s),Gyroscope Z (deg/s),Accelerometer X (g),Accelerometer Y (g),Accelerometer Z (g),Magnetometer X (G),Magnetometer Y (G),Magnetometer Z (G)
0,0.00,-0.00,-0.00,0.01,-0.06,9.87,0,0,0
1,0.00,-0.00,-0.00,0.01,-0.03,9.81,0,0,0
2,-0.00,0.00,-0.00,0.03,-0.06,9.79,0,0,0
3,0.00,0.00,-0.00,0.05,-0.01,9.76,0,0,0
4,0.00,0.00,-0.00,0.05,0.00,9.79,0,0,0
5,0.00,0.00,-0.00,0.06,-0.00,9.83,0,0,0
6,-0.00,0.00,-0.00,0.07,-0.07,9.83,0,0,0
7,0.00,0.00,-0.00,0.01,-0.03,9.84,0,0,0
8,0.00,0.00,-0.00,0.02,-0.02,9.79,0,0,0
9,-0.00,0.00,-0.00,0.04,-0.05,9.74,0,0,0
10,0.00,-0.00,-0.00,0.07,-0.11,9.79,0,0,0
11,0.00,0.00,-0.00,0.08,-0.02,9.86,0,0,0
12,-0.00,-0.00,-0.00,0.05,-0.07,9.83,0,0,0
13,-0.00,0.00,-0.00,0.05,-0.05,9.78,0,0,0
14,0.00,0.00,-0.00,-0.00,-0.06,9.74,0,0,0
15,0.00,0.00,-0.00,0.09,-0.02,9.86,0,0,0
16,-0.00,-0.00,-0.00,0.01,-0.09,9.81,0,0,0
17,0.00,-0.00,-0.00,0.07,-0.04,9.87,0,0,0
18,0.00,0.00,-0.00,0.00,-0.05,9.78,0,0,0
19,-0.00,0.00,-0.00,0.08,-0.05,9.83,0,0,0
20,0.00,0.00,-0.00,0.03,-0.07,9.89,0,0,0
21,-0.00,0.00,-0.00,0.08,-0.08,9.84,0,0,0
22,0.00,0.00,-0.00,0.03,-0.01,9.82,0,0,0
23,-0.00,0.01,0.00,0.06,-0.00,9.81,0,0,0
24,-0.00,-0.00,-0.00,0.06,-0.04,9.74,0,0,0
25,-0.00,0.00,-0.00,0.04,-0.00,9.85,0,0,0
26,0.00,0.00,-0.00,0.07,-0.03,9.80,0,0,0
27,0.00,0.00,-0.00,0.08,-0.04,9.79,0,0,0
28,-0.00,-0.00,-0.00,0.09,-0.05,9.84,0,0,0
29,0.00,0.00,-0.00,0.04,-0.02,9.77,0,0,0
30,0.00,0.00,-0.00,0.06,-0.05,9.84,0,0,0
31,0.00,0.00,-0.00,0.07,-0.01,9.78,0,0,0
32,0.00,0.00,0.00,0.02,-0.00,9.83,0,0,0
33,-0.00,-0.00,-0.00,0.03,-0.03,9.86,0,0,0
34,0.00,-0.00,-0.00,0.07,-0.05,9.86,0,0,0
35,0.00,0.00,-0.00,0.10,-0.04,9.83,0,0,0
36,0.00,-0.00,-0.01,0.06,0.02,9.82,0,0,0
37,-0.00,0.01,-0.00,0.11,0.00,9.83,0,0,0
38,-0.00,0.00,-0.00,0.06,-0.11,9.87,0,0,0
39,0.00,0.00,-0.00,0.06,-0.04,9.86,0,0,0
40,0.00,-0.00,0.00,0.06,-0.04,9.78,0,0,0
41,0.00,0.00,-0.00,0.09,-0.04,9.75,0,0,0
42,-0.00,0.00,-0.00,0.10,-0.02,9.84,0,0,0
43,0.00,0.00,-0.00,0.02,-0.03,9.82,0,0,0
44,0.00,0.00,-0.00,0.05,-0.03,9.80,0,0,0
45,0.00,0.00,-0.00,0.09,-0.02,9.76,0,0,0
46,0.00,0.00,-0.00,0.06,-0.07,9.78,0,0,0
47,0.00,0.00,-0.00,-0.01,-0.07,9.84,0,0,0
48,0.00,0.00,-0.00,0.03,-0.06,9.77,0,0,0
49,-0.00,0.00,-0.00,0.04,-0.03,9.81,0,0,0
50,0.00,0.00,-0.00,0.11,-0.06,9.83,0,0,0
51,-0.00,0.00,-0.00,0.10,-0.06,9.81,0,0,0
52,-0.00,0.00,-0.00,0.05,-0.05,9.91,0,0,0
53,0.00,0.00,-0.00,0.07,-0.01,9.81,0,0,0
54,-0.00,0.00,-0.00,0.07,-0.01,9.87,0,0,0
55,-0.00,0.00,-0.00,0.07,-0.04,9.76,0,0,0
56,0.00,0.00,-0.00,-0.00,-0.04,9.89,0,0,0
57,-0.00,0.00,-0.00,0.07,-0.07,9.83,0,0,0
58,-0.00,0.01,-0.00,0.03,-0.06,9.84,0,0,0
59,0.00,0.00,-0.00,0.08,-0.08,9.79,0,0,0
60,0.00,0.00,-0.00,0.09,-0.04,9.77,0,0,0
61,0.00,0.00,-0.00,0.09,-0.02,9.87,0,0,0
62,0.00,-0.00,-0.00,0.11,-0.01,9.81,0,0,0
63,0.00,0.00,-0.00,0.07,-0.03,9.84,0,0,0
64,0.00,0.00,-0.00,0.08,-0.07,9.86,0,0,0
65,-0.00,0.00,-0.00,0.11,-0.05,9.79,0,0,0
66,0.00,0.00,-0.00,0.09,-0.06,9.75,0,0,0
67,-0.00,-0.00,-0.00,0.07,0.03,9.84,0,0,0
68,0.00,0.00,0.00,0.09,-0.07,9.84,0,0,0
69,0.00,0.00,-0.00,0.03,-0.08,9.82,0,0,0
70,0.00,0.00,-0.00,0.04,-0.05,9.83,0,0,0
71,-0.00,0.00,-0.00,0.02,-0.04,9.83,0,0,0
72,-0.00,0.00,-0.00,0.09,-0.02,9.88,0,0,0
73,0.00,0.00,-0.00,0.09,-0.03,9.83,0,0,0
74,-0.00,0.00,-0.00,0.07,-0.02,9.81,0,0,0
75,-0.00,-0.00,-0.00,0.06,-0.05,9.87,0,0,0
76,-0.00,0.00,0.00,0.06,-0.03,9.79,0,0,0
77,0.00,0.00,-0.00,0.07,-0.06,9.79,0,0,0
78,0.00,0.00,-0.00,0.01,-0.03,9.79,0,0,0
79,0.00,0.00,-0.00,0.04,-0.06,9.81,0,0,0
80,0.00,0.00,-0.00,0.05,-0.07,9.75,0,0,0
81,0.00,0.00,-0.00,0.03,-0.03,9.88,0,0,0
82,-0.00,-0.00,-0.00,0.09,-0.05,9.84,0,0,0
83,-0.00,0.00,-0.00,0.07,-0.09,9.78,0,0,0
84,0.00,0.00,-0.00,0.06,-0.03,9.77,0,0,0
85,-0.00,0.00,-0.00,0.03,-0.02,9.73,0,0,0
86,0.00,-0.00,-0.00,0.08,-0.02,9.82,0,0,0
87,0.00,0.00,-0.00,-0.00,0.00,9.78,0,0,0
88,0.00,0.00,-0.00,0.05,-0.01,9.87,0,0,0
89,0.00,0.00,-0.00,0.07,-0.03,9.80,0,0,0
90,0.00,0.00,-0.00,0.02,-0.03,9.74,0,0,0
91,0.00,0.00,0.00,0.06,-0.05,9.80,0,0,0
92,0.00,-0.00,0.00,0.10,-0.06,9.77,0,0,0
93,0.00,0.00,-0.00,-0.00,-0.03,9.75,0,0,0
94,-0.00,0.00,-0.00,0.06,-0.01,9.81,0,0,0
95,0.00,0.00,-0.00,0.02,-0.02,9.84,0,0,0
96,-0.00,0.00,-0.00,0.06,-0.03,9.86,0,0,0
97,0.00,0.00,-0.00,0.05,-0.06,9.78,0,0,0
98,0.00,0.00,0.00,0.06,-0.06,9.77,0,0,0
99,-0.00,0.00,0.00,0.03,-0.05,9.81,0,0,0
100,-0.00,0.00,-0.00,0.12,-0.02,9.85,0,0,0
101,0.00,0.00,0.00,0.06,-0.02,9.80,0,0,0
102,0.00,0.00,-0.00,0.09,-0.00,9.85,0,0,0
103,-0.00,0.00,-0.00,0.04,-0.04,9.79,0,0,0
104,0.00,-0.00,-0.00,0.06,-0.02,9.82,0,0,0
105,-0.00,0.00,-0.00,0.01,-0.03,9.81,0,0,0
106,-0.00,0.00,-0.00,0.02,-0.05,9.77,0,0,0
107,0.00,-0.00,0.00,0.09,-0.06,9.90,0,0,0
108,-0.00,0.00,-0.00,0.01,-0.03,9.83,0,0,0
109,0.00,0.00,-0.00,0.09,-0.10,9.83,0,0,0
110,0.00,0.00,-0.00,0.07,-0.05,9.82,0,0,0
111,0.00,0.00,-0.00,0.08,-0.05,9.83,0,0,0
112,0.00,0.00,-0.00,0.05,-0.02,9.81,0,0,0
113,0.00,0.00,0.00,0.10,-0.04,9.79,0,0,0
114,0.00,0.00,-0.00,0.03,-0.05,9.84,0,0,0
115,-0.00,-0.00,-0.00,0.05,-0.06,9.79,0,0,0
116,0.00,0.00,-0.00,0.06,-0.07,9.83,0,0,0
117,0.00,0.00,-0.00,0.10,-0.10,9.78,0,0,0
118,0.00,0.00,-0.00,0.09,-0.07,9.76,0,0,0
119,0.00,-0.00,-0.00,0.03,-0.04,9.77,0,0,0
120,0.00,0.00,-0.00,0.03,-0.02,9.79,0,0,0
121,0.00,0.01,-0.00,0.09,-0.04,9.79,0,0,0
122,0.00,0.00,-0.00,0.03,-0.04,9.84,0,0,0
123,0.00,0.00,-0.01,0.10,-0.04,9.89,0,0,0
124,0.00,0.00,-0.00,0.06,-0.04,9.87,0,0,0
125,-0.00,0.00,-0.00,0.09,-0.01,9.90,0,0,0
126,-0.00,-0.00,-0.00,0.07,-0.00,9.83,0,0,0
127,0.00,0.00,-0.00,0.11,0.01,9.80,0,0,0
128,0.00,-0.00,-0.00,0.07,-0.06,9.82,0,0,0
129,-0.00,0.00,-0.00,0.09,-0.01,9.82,0,0,0
130,0.00,-0.00,-0.00,0.05,-0.02,9.87,0,0,0
131,0.00,0.00,-0.00,0.04,-0.02,9.77,0,0,0
132,0.00,0.00,-0.00,0.05,-0.07,9.79,0,0,0
133,0.00,0.00,-0.00,0.09,-0.00,9.87,0,0,0
134,0.00,0.00,-0.00,0.07,-0.05,9.82,0,0,0
135,0.00,0.00,-0.00,0.09,-0.03,9.81,0,0,0
136,0.00,-0.00,-0.00,0.07,0.01,9.76,0,0,0
137,0.00,0.00,-0.00,0.06,-0.01,9.82,0,0,0
138,0.00,0.00,-0.00,0.09,-0.08,9.81,0,0,0
139,-0.00,0.00,-0.00,0.01,-0.05,9.81,0,0,0
140,0.00,0.00,-0.00,0.06,-0.05,9.76,0,0,0
141,-0.00,0.00,0.00,0.09,-0.06,9.86,0,0,0
142,-0.00,0.00,-0.00,0.06,-0.07,9.80,0,0,0
143,0.00,0.00,0.00,0.06,-0.07,9.80,0,0,0
144,0.00,-0.00,-0.00,0.09,-0.04,9.84,0,0,0
145,0.00,0.00,-0.00,0.03,-0.04,9.82,0,0,0
146,0.00,-0.00,-0.00,0.07,-0.03,9.76,0,0,0
147,0.00,-0.00,-0.00,0.09,-0.05,9.82,0,0,0
148,-0.00,0.00,-0.00,0.06,-0.04,9.84,0,0,0
149,0.00,0.00,-0.00,-0.01,-0.05,9.77,0,0,0
150,0.00,-0.00,-0.00,0.03,-0.07,9.76,0,0,0
151,-0.00,-0.00,-0.00,0.07,-0.03,9.77,0,0,0
152,0.00,-0.00,-0.00,0.04,-0.01,9.83,0,0,0
153,0.00,0.00,-0.00,0.07,-0.03,9.78,0,0,0
154,0.00,0.00,-0.00,0.08,-0.04,9.79,0,0,0
155,-0.00,0.00,-0.00,0.11,-0.05,9.85,0,0,0
156,-0.00,-0.00,-0.00,0.11,-0.08,9.85,0,0,0
157,0.00,-0.00,-0.00,-0.00,-0.02,9.85,0,0,0
158,0.00,-0.00,-0.00,0.04,0.02,9.78,0,0,0
159,-0.00,0.00,-0.00,0.09,-0.04,9.82,0,0,0
160,0.00,0.00,-0.00,0.05,-0.04,9.82,0,0,0
161,0.00,0.00,-0.00,0.08,-0.06,9.80,0,0,0
162,-0.00,0.00,-0.00,0.05,0.02,9.74,0,0,0
163,0.00,-0.00,-0.00,0.05,-0.03,9.83,0,0,0
164,-0.00,0.00,0.00,0.04,-0.05,9.88,0,0,0
165,-0.00,0.00,-0.00,0.05,-0.03,9.80,0,0,0
166,-0.00,0.00,-0.00,0.03,-0.07,9.75,0,0,0
167,0.00,0.00,-0.00,0.05,-0.06,9.83,0,0,0
168,-0.00,0.00,-0.00,0.07,-0.03,9.86,0,0,0
169,-0.00,-0.00,-0.00,0.08,-0.01,9.83,0,0,0
170,-0.00,0.00,-0.00,0.07,-0.02,9.85,0,0,0
171,0.00,0.00,-0.00,0.10,-0.04,9.86,0,0,0
172,-0.00,-0.00,0.00,0.03,-0.03,9.86,0,0,0
173,0.00,-0.00,-0.00,0.01,-0.04,9.85,0,0,0
174,0.00,0.00,-0.00,0.09,-0.08,9.92,0,0,0
175,0.00,0.00,-0.00,0.08,-0.04,9.82,0,0,0
176,-0.00,-0.00,0.00,0.10,-0.08,9.80,0,0,0
177,-0.00,-0.00,-0.00,0.07,-0.07,9.81,0,0,0
178,0.00,0.00,-0.00,0.04,-0.05,9.81,0,0,0
179,0.00,0.00,-0.00,0.01,-0.08,9.80,0,0,0
180,-0.00,0.00,-0.00,0.04,-0.02,9.73,0,0,0
181,-0.00,0.00,-0.00,0.03,-0.06,9.84,0,0,0
182,0.00,0.00,-0.00,0.06,-0.08,9.78,0,0,0
183,0.00,0.00,-0.00,0.10,-0.06,9.77,0,0,0
184,0.00,0.00,0.00,0.05,-0.01,9.85,0,0,0
185,-0.00,0.00,-0.00,0.10,-0.04,9.85,0,0,0
186,-0.00,0.00,-0.00,0.03,0.03,9.84,0,0,0
187,0.00,0.00,-0.00,0.08,-0.03,9.83,0,0,0
188,0.00,-0.00,-0.00,0.07,0.00,9.84,0,0,0
189,0.00,0.00,0.00,0.09,-0.05,9.86,0,0,0
190,-0.00,0.00,-0.00,0.04,-0.05,9.75,0,0,0
191,0.00,0.00,-0.00,0.09,-0.06,9.83,0,0,0
192,-0.00,0.00,-0.00,-0.01,-0.07,9.74,0,0,0
193,0.00,-0.00,-0.00,0.07,-0.06,9.81,0,0,0
194,0.00,-0.00,-0.00,0.03,-0.07,9.81,0,0,0
195,0.00,-0.00,-0.00,0.08,-0.02,9.81,0,0,0
196,-0.00,-0.00,-0.00,0.12,-0.05,9.85,0,0,0
197,0.00,0.00,-0.00,0.01,-0.06,9.84,0,0,0
198,0.00,0.00,-0.00,0.03,-0.08,9.85,0,0,0
199,0.00,0.00,-0.00,0.08,-0.06,9.78,0,0,0
200,0.00,0.00,-0.00,0.03,-0.07,9.86,0,0,0
201,-0.00,0.00,-0.00,0.07,-0.06,9.81,0,0,0
202,-0.00,0.00,-0.00,0.05,-0.01,9.74,0,0,0
203,-0.00,0.00,-0.00,0.08,-0.07,9.76,0,0,0
204,0.00,0.00,-0.00,0.01,-0.08,9.78,0,0,0
205,0.00,0.00,-0.00,0.10,-0.00,9.81,0,0,0
206,0.00,0.00,0.00,0.05,-0.03,9.80,0,0,0
207,0.00,0.00,-0.00,0.05,-0.00,9.84,0,0,0
208,0.00,0.00,-0.00,0.02,-0.08,9.84,0,0,0
209,-0.00,0.00,-0.00,0.06,-0.05,9.83,0,0,0
210,0.00,0.00,0.00,0.08,-0.03,9.81,0,0,0
211,-0.00,0.00,-0.00,0.06,0.00,9.75,0,0,0
212,0.00,0.00,-0.00,0.10,-0.01,9.78,0,0,0
213,-0.00,0.00,-0.00,0.01,-0.01,9.79,0,0,0
214,0.00,0.00,-0.00,0.04,-0.00,9.74,0,0,0
215,-0.00,-0.00,-0.00,0.08,-0.06,9.79,0,0,0
216,0.00,0.00,-0.00,0.07,-0.07,9.84,0,0,0
217,0.00,0.00,-0.00,0.11,-0.02,9.82,0,0,0
218,0.00,0.00,-0.00,0.09,-0.06,9.81,0,0,0
219,0.00,0.00,-0.00,0.05,0.03,9.82,0,0,0
220,-0.00,0.00,-0.00,0.02,-0.05,9.78,0,0,0
221,0.00,-0.00,-0.00,0.03,-0.01,9.86,0,0,0
222,0.00,-0.00,0.00,0.05,-0.10,9.76,0,0,0
223,0.00,0.00,-0.00,0.12,-0.01,9.81,0,0,0
224,0.00,0.00,-0.00,0.03,-0.03,9.78,0,0,0
225,-0.00,0.00,-0.00,0.06,-0.10,9.84,0,0,0
226,0.00,-0.00,-0.00,0.03,-0.06,9.84,0,0,0
227,0.00,0.00,-0.00,0.05,-0.05,9.82,0,0,0
228,-0.00,0.00,-0.00,0.04,-0.01,9.83,0,0,0
229,0.00,0.00,-0.00,0.07,-0.05,9.77,0,0,0
230,0.00,0.00,-0.00,0.04,-0.08,9.83,0,0,0
231,-0.00,0.00,-0.00,0.06,-0.04,9.85,0,0,0
232,0.00,0.00,0.00,0.00,-0.04,9.83,0,0,0
233,0.00,-0.00,-0.00,0.03,-0.04,9.84,0,0,0
234,0.00,0.00,-0.00,0.05,-0.06,9.85,0,0,0
235,0.00,0.00,-0.00,0.06,-0.04,9.90,0,0,0
236,-0.00,-0.00,-0.00,0.05,-0.04,9.78,0,0,0
237,0.00,0.00,-0.00,0.04,-0.00,9.86,0,0,0
238,0.00,0.00,-0.00,0.06,-0.03,9.73,0,0,0
239,0.00,0.00,-0.00,0.09,-0.04,9.78,0,0,0
240,0.00,0.00,0.00,0.09,-0.04,9.84,0,0,0
241,-0.00,0.00,-0.00,0.07,-0.04,9.82,0,0,0
242,-0.00,0.00,-0.00,0.06,-0.03,9.83,0,0,0
243,0.00,0.00,-0.00,0.08,-0.10,9.75,0,0,0
244,0.00,0.00,-0.00,0.06,0.00,9.77,0,0,0
245,0.00,-0.00,-0.00,0.05,-0.01,9.74,0,0,0
246,-0.00,0.00,-0.00,0.01,-0.03,9.77,0,0,0
247,0.00,0.00,-0.00,0.08,-0.06,9.84,0,0,0
248,-0.00,0.00,-0.00,0.05,-0.03,9.85,0,0,0
249,0.00,-0.00,-0.00,-0.00,-0.04,9.79,0,0,0
250,-0.00,0.00,-0.00,0.10,-0.02,9.81,0,0,0
251,-0.00,-0.00,-0.00,0.01,-0.04,9.85,0,0,0
252,0.00,0.00,-0.00,0.04,-0.02,9.77,0,0,0
253,-0.00,0.00,0.00,0.04,-0.05,9.79,0,0,0
254,-0.00,0.00,-0.00,0.08,-0.02,9.82,0,0,0
255,0.00,0.00,-0.00,0.04,-0.01,9.80,0,0,0
256,0.00,0.00,-0.00,0.05,-0.06,9.84,0,0,0
257,0.00,-0.00,-0.00,0.07,-0.06,9.84,0,0,0
258,-0.00,0.00,-0.00,0.10,-0.07,9.87,0,0,0
259,0.00,-0.00,-0.00,0.11,-0.02,9.80,0,0,0
260,0.00,-0.00,-0.00,0.08,-0.03,9.75,0,0,0
261,-0.00,0.00,-0.00,0.05,-0.03,9.84,0,0,0
262,0.00,0.00,-0.00,0.01,-0.05,9.84,0,0,0
263,0.00,0.00,0.00,0.01,-0.03,9.82,0,0,0
264,0.00,-0.00,-0.00,0.04,-0.04,9.81,0,0,0
265,0.00,0.00,-0.00,0.08,-0.06,9.83,0,0,0
266,0.00,0.00,0.00,0.08,-0.05,9.82,0,0,0
267,-0.00,0.00,-0.00,0.01,-0.03,9.75,0,0,0
268,0.00,0.00,-0.00,0.04,-0.07,9.69,0,0,0
269,0.00,0.00,0.00,0.09,-0.00,9.84,0,0,0
270,0.00,0.00,-0.00,0.06,-0.05,9.80,0,0,0
271,0.00,0.00,-0.00,0.10,-0.05,9.84,0,0,0
272,0.00,0.00,-0.00,0.04,-0.01,9.74,0,0,0
273,-0.00,0.00,0.00,0.08,-0.03,9.83,0,0,0
274,-0.00,0.00,-0.00,0.08,-0.02,9.82,0,0,0
275,-0.00,0.00,-0.00,0.07,-0.04,9.77,0,0,0
276,0.00,-0.00,-0.00,0.10,-0.04,9.85,0,0,0
277,0.00,0.00,-0.00,-0.00,-0.05,9.86,0,0,0
278,0.00,0.00,-0.00,0.04,-0.01,9.85,0,0,0
279,0.00,-0.00,-0.00,0.04,-0.09,9.80,0,0,0
280,0.00,0.00,-0.00,0.07,-0.05,9.83,0,0,0
281,-0.00,0.00,-0.00,0.05,-0.02,9.79,0,0,0
282,-0.00,0.00,-0.00,0.07,-0.04,9.86,0,0,0
283,0.00,0.00,-0.00,0.04,-0.05,9.85,0,0,0
284,0.00,0.00,-0.00,0.09,-0.03,9.73,0,0,0
285,0.00,0.00,-0.00,0.11,-0.04,9.88,0,0,0
286,0.00,-0.00,-0.00,0.08,-0.06,9.88,0,0,0
287,-0.00,0.00,-0.00,0.08,-0.04,9.86,0,0,0
288,-0.00,-0.00,-0.00,0.05,0.01,9.91,0,0,0
289,0.00,0.00,-0.00,0.09,-0.01,9.74,0,0,0
290,0.00,-0.00,-0.00,0.04,-0.05,9.78,0,0,0
291,0.00,0.00,-0.00,0.04,-0.04,9.86,0,0,0
292,-0.00,0.00,0.00,0.09,-0.05,9.79,0,0,0
293,0.00,-0.00,-0.00,0.03,-0.02,9.82,0,0,0
294,0.00,0.00,-0.00,0.13,-0.07,9.82,0,0,0
295,0.00,0.00,-0.00,0.08,-0.01,9.78,0,0,0
296,0.00,-0.00,-0.00,0.07,-0.06,9.79,0,0,0
297,0.00,0.00,-0.00,0.05,-0.07,9.83,0,0,0
298,0.00,0.00,-0.00,0.03,0.02,9.72,0,0,0
299,-0.00,0.00,-0.00,0.04,-0.00,9.76,0,0,0
300,0.00,0.00,-0.00,0.07,-0.05,9.78,0,0,0
301,0.00,0.00,-0.00,0.03,-0.07,9.85,0,0,0
302,0.00,0.00,0.00,0.08,-0.05,9.83,0,0,0
303,0.00,0.00,-0.00,0.06,-0.06,9.83,0,0,0
304,0.00,0.00,-0.00,0.12,-0.00,9.81,0,0,0
305,0.00,0.00,-0.00,0.11,-0.04,9.80,0,0,0
306,-0.00,0.00,-0.00,0.08,-0.02,9.86,0,0,0
307,-0.00,0.00,-0.00,0.09,-0.03,9.78,0,0,0
308,0.00,-0.00,-0.00,0.02,-0.00,9.77,0,0,0
309,-0.00,-0.00,-0.00,0.07,-0.05,9.86,0,0,0
310,0.00,0.00,-0.00,0.10,-0.03,9.79,0,0,0
311,-0.00,0.00,-0.00,0.07,-0.06,9.81,0,0,0
312,-0.00,-0.00,-0.00,0.09,0.01,9.76,0,0,0
313,-0.00,0.00,-0.00,0.07,-0.01,9.87,0,0,0
314,0.00,0.00,-0.00,0.11,-0.02,9.87,0,0,0
315,-0.00,0.00,-0.00,0.07,-0.08,9.83,0,0,0
316,-0.00,0.00,-0.00,0.14,-0.04,9.85,0,0,0
317,0.00,0.00,-0.00,0.10,-0.06,9.82,0,0,0
318,0.00,0.01,-0.00,0.06,-0.10,9.92,0,0,0
319,0.00,-0.00,-0.00,-0.04,-0.01,9.79,0,0,0
320,0.00,0.00,-0.00,-0.00,-0.02,9.87,0,0,0
321,0.00,0.00,-0.00,0.10,-0.05,9.79,0,0,0
322,0.00,0.00,-0.00,0.13,-0.06,9.90,0,0,0
323,-0.00,0.00,-0.00,0.06,-0.05,9.80,0,0,0
324,0.00,0.00,-0.00,0.07,-0.05,9.89,0,0,0
325,-0.00,0.00,-0.00,0.11,0.00,9.83,0,0,0
326,-0.00,0.00,-0.00,0.05,-0.02,9.82,0,0,0
327,0.00,0.00,-0.00,0.07,-0.01,9.77,0,0,0
328,-0.00,0.00,-0.00,0.06,-0.06,9.78,0,0,0
329,0.00,0.00,-0.00,0.01,-0.03,9.83,0,0,0
330,-0.00,0.00,-0.00,0.01,-0.03,9.80,0,0,0
331,-0.00,-0.00,-0.00,0.15,-0.06,9.89,0,0,0
332,-0.00,0.01,-0.00,0.10,-0.03,9.81,0,0,0
333,0.00,0.00,-0.00,0.03,-0.03,9.84,0,0,0
334,0.00,0.00,-0.00,0.06,-0.05,9.87,0,0,0
335,0.00,-0.00,-0.00,0.12,-0.03,9.82,0,0,0
336,0.00,0.00,-0.00,0.13,-0.04,9.81,0,0,0
337,0.00,0.00,-0.00,0.08,-0.05,9.76,0,0,0
338,-0.00,0.00,-0.00,0.07,-0.03,9.84,0,0,0
339,0.00,-0.00,-0.00,-0.00,-0.04,9.83,0,0,0
340,-0.00,-0.00,-0.00,-0.02,-0.06,9.89,0,0,0
341,-0.00,0.00,-0.00,0.08,-0.05,9.90,0,0,0
342,0.00,0.00,-0.00,0.08,-0.02,9.85,0,0,0
343,0.00,0.00,-0.00,0.02,-0.03,9.78,0,0,0
344,-0.00,0.00,-0.00,0.05,-0.06,9.75,0,0,0
345,-0.00,0.00,-0.00,0.03,-0.04,9.87,0,0,0
346,-0.00,0.00,-0.00,0.10,-0.04,9.83,0,0,0
347,-0.00,0.00,-0.00,0.10,-0.06,9.79,0,0,0
348,0.00,0.00,-0.00,-0.01,-0.02,9.81,0,0,0
349,0.00,0.00,-0.00,-0.01,-0.03,9.84,0,0,0
350,0.00,0.00,-0.00,0.11,-0.04,9.83,0,0,0
351,-0.00,0.00,-0.00,0.04,-0.09,9.77,0,0,0
352,-0.00,0.01,-0.00,0.03,0.00,9.86,0,0,0
353,0.00,-0.00,-0.00,0.05,-0.01,9.80,0,0,0
354,0.00,0.00,0.00,0.03,-0.08,9.73,0,0,0
355,0.00,0.00,-0.00,0.07,-0.02,9.79,0,0,0
356,-0.00,0.00,-0.00,0.05,-0.04,9.79,0,0,0
357,0.00,0.00,-0.00,0.08,-0.04,9.82,0,0,0
358,-0.00,0.01,-0.00,0.05,-0.05,9.78,0,0,0
359,-0.00,0.00,-0.00,0.11,-0.02,9.83,0,0,0
360,0.00,0.00,-0.00,0.01,-0.01,9.80,0,0,0
361,0.00,0.00,-0.00,0.08,-0.04,9.81,0,0,0
362,0.00,0.00,-0.00,0.07,-0.07,9.81,0,0,0
363,0.00,0.00,-0.00,0.05,-0.10,9.79,0,0,0
364,0.00,0.00,-0.00,0.10,-0.03,9.85,0,0,0
365,0.00,0.00,-0.00,-0.00,-0.00,9.81,0,0,0
366,-0.00,0.00,0.00,0.07,-0.02,9.84,0,0,0
367,0.00,0.00,-0.00,0.08,-0.06,9.77,0,0,0
368,0.00,0.00,0.00,0.09,-0.06,9.83,0,0,0
369,0.00,0.00,-0.00,0.07,-0.03,9.83,0,0,0
370,-0.00,0.00,-0.00,0.07,-0.02,9.86,0,0,0
371,0.00,-0.00,-0.00,0.09,-0.01,9.81,0,0,0
372,0.00,-0.00,-0.00,0.01,-0.06,9.85,0,0,0
373,0.00,0.00,-0.00,0.10,-0.02,9.79,0,0,0
374,0.00,0.00,-0.00,0.07,-0.08,9.80,0,0,0
375,0.00,0.00,-0.00,0.04,-0.06,9.74,0,0,0
376,0.00,-0.00,-0.00,0.04,-0.06,9.78,0,0,0
377,-0.00,0.00,-0.00,0.13,-0.08,9.87,0,0,0
378,-0.00,0.00,-0.00,0.11,0.01,9.78,0,0,0
379,0.00,0.00,-0.00,0.05,0.00,9.83,0,0,0
380,-0.00,-0.00,-0.00,0.13,-0.06,9.80,0,0,0
381,0.00,0.00,-0.00,0.07,-0.05,9.88,0,0,0
382,-0.00,0.00,-0.00,0.04,-0.05,9.85,0,0,0
383,-0.00,0.00,-0.00,0.08,-0.02,9.85,0,0,0
384,0.00,0.00,-0.00,0.02,0.00,9.80,0,0,0
385,-0.00,0.00,-0.00,-0.01,-0.03,9.85,0,0,0
386,0.00,-0.00,-0.00,0.09,-0.09,9.86,0,0,0
387,-0.00,0.00,-0.00,0.06,-0.05,9.80,0,0,0
388,0.00,0.00,-0.00,0.12,-0.05,9.83,0,0,0
389,0.00,0.00,-0.00,0.03,-0.03,9.79,0,0,0
390,0.00,0.00,-0.00,0.01,-0.05,9.89,0,0,0
391,0.00,0.00,0.00,0.06,-0.00,9.78,0,0,0
392,0.00,0.00,-0.00,0.07,-0.06,9.82,0,0,0
393,0.00,0.00,-0.00,0.06,-0.06,9.86,0,0,0
394,0.00,0.00,-0.00,0.08,-0.04,9.86,0,0,0
395,0.00,-0.00,-0.00,0.07,-0.06,9.79,0,0,0
396,-0.00,-0.00,-0.00,0.03,-0.09,9.87,0,0,0
397,0.00,0.00,-0.00,0.02,-0.01,9.78,0,0,0
398,-0.00,0.00,0.00,0.08,-0.07,9.87,0,0,0
399,-0.00,0.00,-0.00,0.03,0.00,9.81,0,0,0
400,0.00,-0.00,-0.00,0.09,-0.04,9.78,0,0,0
401,-0.00,0.00,-0.00,0.06,-0.04,9.80,0,0,0
402,0.00,0.00,-0.00,0.00,-0.05,9.78,0,0,0
403,-0.00,-0.00,-0.00,0.05,-0.09,9.87,0,0,0
404,0.00,0.00,0.00,0.01,-0.01,9.78,0,0,0
405,0.00,0.00,-0.00,0.02,-0.04,9.90,0,0,0
406,0.00,-0.00,-0.00,0.08,-0.06,9.81,0,0,0
407,0.00,0.00,-0.00,0.06,-0.06,9.80,0,0,0
408,-0.00,0.00,-0.00,0.09,-0.06,9.87,0,0,0
409,0.00,0.00,-0.00,0.04,-0.07,9.75,0,0,0
410,0.00,0.00,-0.00,-0.00,-0.05,9.78,0,0,0
411,0.00,-0.00,-0.00,-0.01,-0.06,9.86,0,0,0
412,-0.00,0.00,-0.00,0.11,-0.07,9.78,0,0,0
413,0.00,-0.00,-0.00,0.01,-0.01,9.79,0,0,0
414,0.00,-0.00,-0.00,0.06,-0.09,9.83,0,0,0
415,0.00,-0.00,-0.00,0.02,-0.04,9.88,0,0,0
416,-0.00,0.00,-0.00,0.07,-0.03,9.82,0,0,0
417,-0.00,0.00,-0.00,0.04,-0.08,9.75,0,0,0
418,-0.00,0.00,-0.00,0.04,-0.04,9.80,0,0,0
419,0.00,0.00,-0.00,0.02,-0.04,9.80,0,0,0
420,0.00,0.00,-0.00,0.01,-0.06,9.83,0,0,0
421,0.00,-0.00,-0.00,0.09,-0.09,9.82,0,0,0
422,0.00,0.00,-0.00,0.03,-0.04,9.83,0,0,0
423,-0.00,-0.00,-0.00,0.01,-0.00,9.80,0,0,0
424,0.00,-0.00,-0.00,0.07,-0.06,9.79,0,0,0
425,0.00,0.00,-0.00,0.00,-0.03,9.77,0,0,0
426,0.00,0.00,-0.00,0.06,-0.00,9.85,0,0,0
427,-0.00,0.00,-0.00,0.07,-0.04,9.83,0,0,0
428,0.00,0.00,-0.00,0.00,-0.03,9.84,0,0,0
429,0.00,0.00,-0.00,0.04,0.02,9.82,0,0,0
430,0.00,0.00,-0.00,0.08,-0.03,9.82,0,0,0
431,0.00,0.00,-0.00,0.08,-0.04,9.88,0,0,0
432,-0.00,-0.00,0.00,0.02,-0.03,9.85,0,0,0
433,-0.00,0.00,-0.00,0.03,-0.03,9.80,0,0,0
434,0.00,0.00,-0.00,0.01,-0.02,9.82,0,0,0
435,0.00,0.00,0.00,0.04,-0.06,9.83,0,0,0
436,0.00,0.00,-0.00,0.09,-0.07,9.80,0,0,0
437,0.00,0.00,-0.00,0.08,-0.04,9.86,0,0,0
438,-0.00,0.00,-0.00,0.04,-0.01,9.80,0,0,0
439,-0.00,0.00,0.00,0.05,-0.02,9.75,0,0,0
440,0.00,0.00,-0.00,0.05,-0.07,9.77,0,0,0
441,0.00,0.00,-0.00,0.07,-0.05,9.76,0,0,0
442,0.00,-0.00,-0.00,0.04,-0.02,9.79,0,0,0
443,-0.00,0.00,-0.00,0.05,-0.00,9.71,0,0,0
444,0.00,0.00,-0.00,0.06,-0.03,9.83,0,0,0
445,0.00,0.00,-0.00,0.10,-0.02,9.79,0,0,0
446,-0.00,0.00,-0.00,0.05,-0.02,9.78,0,0,0
447,0.00,-0.00,-0.00,0.07,-0.05,9.81,0,0,0
448,0.00,0.00,-0.00,0.04,-0.03,9.77,0,0,0
449,0.00,0.00,0.00,0.01,0.00,9.77,0,0,0
450,-0.00,-0.00,-0.00,0.07,-0.05,9.85,0,0,0
451,0.00,-0.00,-0.00,0.08,-0.07,9.86,0,0,0
452,0.00,0.00,-0.00,0.07,-0.06,9.84,0,0,0
453,0.00,0.00,-0.00,0.11,-0.08,9.82,0,0,0
454,-0.00,0.00,-0.00,0.03,-0.01,9.77,0,0,0
455,0.00,0.00,-0.00,0.03,-0.02,9.81,0,0,0
456,0.00,0.00,-0.00,0.02,-0.04,9.84,0,0,0
457,-0.00,0.00,-0.00,0.03,-0.08,9.81,0,0,0
458,-0.00,0.00,-0.00,0.12,-0.05,9.80,0,0,0
459,0.00,0.00,-0.00,0.09,-0.04,9.87,0,0,0
460,0.00,0.00,-0.00,0.05,-0.02,9.90,0,0,0
461,0.00,0.00,-0.00,0.04,-0.05,9.89,0,0,0
462,0.00,-0.00,-0.00,0.08,0.00,9.82,0,0,0
463,0.00,0.01,-0.00,0.06,-0.05,9.85,0,0,0
464,0.00,0.00,-0.00,0.06,-0.10,9.79,0,0,0
465,-0.00,0.01,-0.00,-0.00,-0.03,9.73,0,0,0
466,0.00,0.00,-0.00,0.07,-0.09,9.85,0,0,0
467,0.00,0.00,-0.00,0.10,-0.03,9.79,0,0,0
468,-0.00,0.00,-0.00,0.06,-0.04,9.78,0,0,0
469,-0.00,0.00,-0.00,0.05,-0.03,9.86,0,0,0
470,-0.00,0.00,-0.00,0.08,-0.04,9.82,0,0,0
471,0.00,0.00,-0.00,0.10,-0.02,9.84,0,0,0
472,0.00,0.00,-0.00,0.04,-0.02,9.79,0,0,0
473,0.00,0.00,-0.00,0.04,-0.00,9.84,0,0,0
474,0.00,0.00,-0.00,0.05,-0.05,9.85,0,0,0
475,0.00,0.00,-0.00,0.05,-0.00,9.86,0,0,0
476,-0.00,-0.00,-0.00,0.03,-0.05,9.80,0,0,0
477,0.00,0.00,-0.00,0.09,-0.05,9.81,0,0,0
478,0.00,0.00,-0.00,0.04,-0.04,9.82,0,0,0
479,-0.00,0.00,-0.00,0.13,-0.04,9.88,0,0,0
480,0.00,0.00,-0.00,0.05,-0.03,9.84,0,0,0
481,0.00,0.00,-0.00,0.10,-0.05,9.83,0,0,0
482,0.00,-0.00,-0.00,0.03,-0.09,9.79,0,0,0
483,-0.00,0.00,-0.00,0.01,-0.05,9.76,0,0,0
484,0.00,0.00,-0.00,0.03,-0.07,9.82,0,0,0
485,0.00,-0.00,-0.00,0.06,-0.02,9.84,0,0,0
486,0.00,0.00,-0.00,0.06,-0.02,9.84,0,0,0
487,-0.00,-0.00,-0.00,0.03,-0.07,9.78,0,0,0
488,0.00,-0.00,-0.00,-0.00,-0.05,9.87,0,0,0
489,-0.00,0.00,-0.00,0.03,-0.06,9.84,0,0,0
490,0.00,0.00,-0.00,0.09,-0.06,9.83,0,0,0
491,-0.00,-0.00,-0.00,0.04,-0.04,9.79,0,0,0
492,-0.00,0.00,-0.00,0.04,-0.06,9.84,0,0,0
493,0.00,0.00,-0.00,0.04,-0.10,9.73,0,0,0
494,-0.00,-0.00,-0.00,0.04,-0.03,9.82,0,0,0
495,0.00,-0.00,-0.00,0.04,-0.06,9.84,0,0,0
496,0.00,0.00,-0.00,0.09,-0.01,9.83,0,0,0
497,0.00,0.00,-0.00,0.06,-0.02,9.77,0,0,0
498,0.00,0.00,-0.00,-0.00,-0.06,9.80,0,0,0
499,0.00,-0.00,-0.00,0.01,-0.05,9.91,0,0,0
500,-0.00,-0.00,-0.00,-0.01,-0.05,9.81,0,0,0
501,0.00,0.01,0.00,0.02,0.02,9.77,0,0,0
502,0.00,0.02,0.00,0.10,-0.09,9.77,0,0,0
503,0.00,0.02,0.00,-0.04,-0.05,9.83,0,0,0
504,-0.00,-0.00,-0.00,0.06,-0.10,9.79,0,0,0
505,0.01,-0.01,-0.00,-0.09,-0.06,9.82,0,0,0
506,-0.00,-0.04,-0.01,0.12,-0.12,9.79,0,0,0
507,0.00,-0.01,-0.00,0.45,0.04,9.86,0,0,0
508,-0.00,-0.00,-0.01,-0.11,-0.04,9.76,0,0,0
509,-0.00,-0.00,-0.01,0.26,-0.04,9.90,0,0,0
510,-0.00,-0.00,-0.00,0.08,-0.07,9.85,0,0,0
511,-0.00,0.01,0.00,0.05,-0.01,9.75,0,0,0
512,0.00,-0.00,-0.00,0.01,-0.08,9.80,0,0,0
513,0.00,0.00,-0.00,0.11,-0.02,9.79,0,0,0
514,0.00,0.00,-0.00,0.07,-0.02,9.81,0,0,0
515,-0.00,0.00,-0.00,0.02,-0.01,9.81,0,0,0
516,0.00,0.00,-0.00,0.00,-0.02,9.88,0,0,0
517,-0.00,0.00,-0.00,0.08,-0.09,9.79,0,0,0
518,0.00,0.00,-0.00,0.05,-0.07,9.79,0,0,0
519,0.00,0.00,-0.00,0.07,-0.09,9.84,0,0,0
520,-0.00,0.00,-0.00,0.13,-0.07,9.79,0,0,0
521,0.00,0.00,-0.00,0.03,-0.02,9.82,0,0,0
522,-0.00,0.00,-0.00,0.11,-0.08,9.80,0,0,0
523,0.00,0.00,-0.00,0.09,-0.02,9.84,0,0,0
524,-0.00,-0.00,-0.00,0.07,-0.07,9.84,0,0,0
525,0.00,0.00,-0.00,0.04,-0.03,9.82,0,0,0
526,-0.00,0.00,0.00,0.04,-0.02,9.81,0,0,0
527,-0.00,0.00,-0.00,0.10,-0.06,9.79,0,0,0
528,0.00,0.00,-0.00,0.01,0.02,9.87,0,0,0
529,-0.00,0.00,-0.00,0.03,-0.01,9.84,0,0,0
530,0.00,0.00,-0.00,0.05,-0.02,9.78,0,0,0
531,0.00,0.00,0.00,0.07,0.01,9.86,0,0,0
532,0.00,0.00,0.00,-0.01,-0.04,9.79,0,0,0
533,0.00,0.00,-0.00,0.09,-0.09,9.85,0,0,0
534,0.00,-0.00,-0.00,0.01,-0.06,9.84,0,0,0
535,0.00,-0.00,-0.00,0.08,-0.05,9.94,0,0,0
536,0.00,0.00,-0.00,0.08,-0.05,9.80,0,0,0
537,-0.00,0.00,-0.00,0.11,-0.01,9.79,0,0,0
538,0.00,0.00,-0.00,0.07,-0.06,9.84,0,0,0
539,-0.00,0.00,-0.00,0.04,-0.03,9.77,0,0,0
540,-0.00,0.00,-0.00,0.07,-0.08,9.77,0,0,0
541,0.00,0.00,-0.00,0.05,-0.00,9.73,0,0,0
542,0.00,0.00,-0.00,0.10,-0.02,9.78,0,0,0
543,0.00,0.00,-0.00,0.06,0.01,9.84,0,0,0
544,0.00,0.00,-0.00,0.03,-0.04,9.90,0,0,0
545,0.00,0.00,-0.00,0.00,-0.04,9.87,0,0,0
546,0.00,0.00,-0.00,0.04,-0.07,9.83,0,0,0
547,-0.00,0.00,-0.00,0.07,-0.06,9.86,0,0,0
548,0.00,0.00,-0.00,0.07,-0.05,9.85,0,0,0
549,0.00,0.00,0.00,0.06,-0.02,9.80,0,0,0
550,0.00,-0.00,-0.00,0.03,-0.05,9.84,0,0,0
551,0.00,0.00,-0.00,0.08,-0.02,9.82,0,0,0
552,0.00,0.00,-0.00,0.15,-0.04,9.80,0,0,0
553,0.00,0.00,-0.00,0.05,-0.04,9.74,0,0,0
554,0.00,0.00,0.00,0.06,-0.00,9.82,0,0,0
555,0.00,0.00,-0.00,0.08,-0.02,9.85,0,0,0
556,-0.00,0.00,-0.00,0.08,-0.04,9.83,0,0,0
557,0.00,-0.00,0.00,0.02,-0.03,9.80,0,0,0
558,-0.00,0.00,-0.00,0.04,-0.01,9.90,0,0,0
559,0.00,0.00,-0.00,0.04,-0.05,9.80,0,0,0
560,0.00,0.00,-0.00,0.08,-0.02,9.84,0,0,0
561,0.00,0.00,-0.00,0.11,-0.07,9.88,0,0,0
562,0.00,0.00,-0.00,0.04,-0.02,9.76,0,0,0
563,0.00,0.00,-0.00,0.06,-0.03,9.77,0,0,0
564,0.00,0.00,-0.00,0.04,-0.00,9.80,0,0,0
565,0.00,0.00,-0.00,0.06,-0.05,9.72,0,0,0
566,0.00,0.00,-0.00,0.07,-0.04,9.85,0,0,0
567,-0.00,-0.00,-0.00,0.05,-0.04,9.77,0,0,0
568,-0.00,0.00,-0.00,0.04,-0.03,9.73,0,0,0
569,0.00,0.00,-0.00,0.08,-0.10,9.84,0,0,0
570,0.00,0.00,-0.00,0.06,-0.09,9.79,0,0,0
571,-0.00,0.00,-0.00,0.02,-0.03,9.84,0,0,0
572,0.00,0.00,-0.00,0.08,-0.01,9.77,0,0,0
573,0.00,0.00,-0.00,0.02,-0.00,9.77,0,0,0
574,-0.00,0.00,-0.00,0.06,-0.07,9.83,0,0,0
575,0.00,0.00,-0.00,0.05,-0.00,9.82,0,0,0
576,0.00,0.00,0.00,0.04,-0.00,9.83,0,0,0
577,0.00,0.00,-0.00,0.06,-0.02,9.75,0,0,0
578,0.00,0.00,-0.00,0.07,-0.11,9.94,0,0,0
579,0.00,0.00,-0.00,0.03,-0.01,9.82,0,0,0
580,-0.00,0.00,-0.00,0.05,0.00,9.81,0,0,0
581,0.00,0.00,-0.00,0.08,-0.02,9.78,0,0,0
582,-0.00,-0.00,-0.00,0.04,-0.06,9.89,0,0,0
583,0.00,-0.00,-0.00,0.04,-0.09,9.86,0,0,0
584,0.00,0.00,-0.00,0.05,-0.06,9.80,0,0,0
585,-0.00,0.00,0.00,0.05,0.01,9.84,0,0,0
586,0.00,-0.00,-0.00,0.09,-0.01,9.82,0,0,0
587,0.00,0.00,-0.00,0.11,-0.02,9.83,0,0,0
588,0.00,0.00,-0.00,0.04,-0.06,9.80,0,0,0
589,-0.00,-0.00,-0.00,0.02,-0.04,9.84,0,0,0
590,0.00,0.00,0.00,0.08,-0.03,9.81,0,0,0
591,0.00,0.00,-0.00,0.07,-0.02,9.83,0,0,0
592,-0.00,0.00,-0.00,0.04,-0.00,9.80,0,0,0
593,0.00,0.00,-0.00,0.10,-0.03,9.82,0,0,0
594,0.00,0.00,-0.00,0.03,-0.02,9.86,0,0,0
595,-0.00,0.00,-0.00,-0.00,-0.02,9.85,0,0,0
596,-0.00,0.00,0.00,0.05,-0.05,9.83,0,0,0
597,0.00,-0.00,-0.00,0.08,-0.04,9.79,0,0,0
598,0.00,-0.00,-0.00,0.03,-0.02,9.77,0,0,0
599,0.00,0.00,-0.00,-0.00,-0.05,9.84,0,0,0
600,-0.00,0.00,-0.00,0.08,-0.07,9.83,0,0,0
601,0.00,0.00,-0.00,0.10,0.01,9.82,0,0,0
602,-0.00,0.00,-0.00,0.04,-0.07,9.79,0,0,0
603,0.00,-0.00,-0.00,0.03,0.00,9.95,0,0,0
604,0.00,0.00,-0.00,0.13,-0.04,9.82,0,0,0
605,0.00,-0.00,0.00,0.04,-0.02,9.83,0,0,0
606,0.00,-0.00,-0.00,0.05,-0.02,9.86,0,0,0
607,-0.00,-0.00,-0.00,0.05,-0.02,9.92,0,0,0
608,-0.00,0.00,-0.00,0.04,-0.06,9.87,0,0,0
609,-0.00,-0.00,-0.00,0.08,-0.04,9.84,0,0,0
610,-0.00,0.00,-0.00,0.06,-0.05,9.84,0,0,0
611,-0.00,-0.00,-0.00,0.06,-0.08,9.84,0,0,0
612,0.00,0.00,-0.00,0.02,-0.10,9.81,0,0,0
613,-0.00,0.00,0.00,0.09,-0.07,9.78,0,0,0
614,0.00,-0.00,-0.00,0.07,-0.02,9.78,0,0,0
615,0.00,0.00,-0.00,0.03,-0.04,9.88,0,0,0
616,0.00,0.00,-0.00,0.04,-0.04,9.73,0,0,0
617,0.00,0.00,-0.00,0.03,-0.06,9.77,0,0,0
618,-0.00,0.00,-0.00,0.01,-0.01,9.87,0,0,0
619,0.00,0.00,-0.00,0.04,-0.08,9.74,0,0,0
620,-0.00,0.00,-0.00,0.04,-0.08,9.88,0,0,0
621,-0.00,0.00,-0.00,0.04,-0.08,9.81,0,0,0
622,0.00,0.00,-0.00,0.07,-0.05,9.80,0,0,0
623,0.00,-0.00,0.00,0.06,-0.06,9.82,0,0,0
624,0.00,0.00,-0.00,0.04,-0.04,9.87,0,0,0
625,-0.00,0.00,-0.00,0.11,-0.08,9.81,0,0,0
626,0.00,0.00,-0.00,0.06,-0.03,9.78,0,0,0
627,0.00,-0.00,-0.00,-0.01,-0.00,9.88,0,0,0
628,0.00,0.00,-0.00,0.02,-0.05,9.75,0,0,0
629,-0.00,0.00,-0.00,0.09,-0.03,9.87,0,0,0
630,0.00,-0.00,-0.01,0.02,-0.07,9.77,0,0,0
631,-0.00,0.00,-0.00,0.12,-0.05,9.87,0,0,0
632,-0.00,0.00,-0.00,0.12,-0.07,9.85,0,0,0
633,0.00,0.00,-0.00,0.07,-0.06,9.82,0,0,0
634,0.00,0.00,-0.00,0.08,-0.04,9.83,0,0,0
635,0.00,0.00,-0.00,-0.03,-0.08,9.82,0,0,0
636,-0.00,-0.00,0.00,0.08,-0.04,9.78,0,0,0
637,0.00,-0.00,0.00,0.00,-0.00,9.79,0,0,0
638,0.00,-0.00,-0.00,0.08,-0.04,9.79,0,0,0
639,0.00,0.01,-0.00,0.05,-0.01,9.83,0,0,0
640,0.00,0.00,-0.00,0.06,-0.03,9.86,0,0,0
641,-0.00,-0.00,-0.00,0.02,-0.14,9.76,0,0,0
642,-0.00,0.00,-0.00,0.02,-0.10,9.84,0,0,0
643,0.00,-0.00,-0.00,0.08,-0.06,9.78,0,0,0
644,0.00,0.00,-0.00,0.13,-0.06,9.81,0,0,0
645,0.00,0.00,-0.00,0.03,0.02,9.88,0,0,0
646,0.00,0.00,-0.00,0.08,-0.05,9.78,0,0,0
647,-0.00,0.00,-0.00,0.07,-0.01,9.81,0,0,0
648,0.00,0.00,-0.00,0.09,-0.07,9.84,0,0,0
649,-0.00,0.00,0.00,0.11,-0.06,9.85,0,0,0
650,0.00,0.00,-0.00,0.06,-0.04,9.79,0,0,0
651,0.00,-0.00,-0.00,0.05,-0.03,9.83,0,0,0
652,0.00,-0.00,-0.00,0.08,-0.06,9.82,0,0,0
653,0.00,-0.00,-0.00,-0.06,-0.02,9.78,0,0,0
654,-0.00,-0.02,-0.01,0.02,-0.07,9.85,0,0,0
655,-0.00,-0.01,-0.00,0.08,-0.04,9.93,0,0,0
656,-0.01,-0.01,-0.00,0.05,-0.03,9.84,0,0,0
657,-0.00,-0.00,-0.00,0.17,0.01,9.78,0,0,0
658,-0.00,0.00,-0.01,0.16,-0.02,9.77,0,0,0
659,0.01,0.02,0.01,0.23,-0.16,9.84,0,0,0
660,0.00,0.02,0.00,-0.09,0.16,9.81,0,0,0
661,-0.00,0.01,-0.00,0.10,-0.06,9.86,0,0,0
662,0.00,0.01,-0.00,-0.03,0.00,9.74,0,0,0
663,0.00,0.00,-0.00,0.06,-0.01,9.79,0,0,0
664,0.00,0.00,-0.00,0.07,-0.06,9.84,0,0,0
665,-0.00,0.00,-0.00,0.04,-0.06,9.81,0,0,0
666,0.00,0.00,0.00,0.06,-0.07,9.74,0,0,0
667,0.00,0.00,-0.00,0.03,-0.01,9.81,0,0,0
668,0.00,0.00,0.00,0.05,-0.03,9.74,0,0,0
669,0.00,0.00,-0.00,0.03,-0.08,9.77,0,0,0
670,-0.00,-0.00,-0.00,0.04,0.01,9.86,0,0,0
671,0.00,0.00,-0.00,0.06,-0.07,9.81,0,0,0
672,0.00,0.00,-0.00,0.03,-0.00,9.81,0,0,0
673,0.00,-0.00,-0.00,0.01,-0.04,9.84,0,0,0
674,0.00,0.00,-0.00,0.04,-0.07,9.74,0,0,0
675,0.00,0.00,-0.00,0.05,-0.03,9.81,0,0,0
676,-0.00,0.00,-0.00,0.05,-0.06,9.81,0,0,0
677,0.00,0.00,-0.00,0.05,-0.04,9.83,0,0,0
678,0.00,0.00,0.00,0.08,-0.02,9.83,0,0,0
679,-0.00,0.00,-0.00,-0.01,-0.07,9.80,0,0,0
680,-0.00,0.00,-0.00,0.06,-0.04,9.90,0,0,0
681,0.00,0.00,-0.00,0.08,-0.06,9.84,0,0,0
682,0.00,-0.00,-0.00,0.04,-0.08,9.83,0,0,0
683,0.00,0.00,0.00,0.09,0.00,9.78,0,0,0
684,0.00,-0.00,-0.00,-0.00,-0.06,9.78,0,0,0
685,0.00,0.00,-0.00,0.04,-0.07,9.83,0,0,0
686,-0.00,0.00,-0.00,0.08,-0.07,9.84,0,0,0
687,-0.00,0.00,-0.00,0.08,-0.02,9.83,0,0,0
688,0.00,0.00,-0.00,0.07,-0.04,9.87,0,0,0
689,0.00,-0.00,-0.00,0.06,-0.01,9.77,0,0,0
690,0.00,-0.00,-0.00,0.06,-0.05,9.80,0,0,0
691,0.00,-0.00,-0.00,0.03,-0.05,9.80,0,0,0
692,-0.00,0.00,-0.00,0.05,-0.02,9.73,0,0,0
693,0.00,0.00,-0.00,0.02,-0.03,9.85,0,0,0
694,-0.00,0.00,-0.00,0.08,-0.07,9.87,0,0,0
695,0.00,0.00,-0.00,0.12,0.01,9.82,0,0,0
696,0.00,0.00,0.00,0.08,-0.04,9.79,0,0,0
697,0.00,0.00,-0.00,0.08,-0.08,9.84,0,0,0
698,0.00,-0.00,-0.00,0.06,-0.06,9.84,0,0,0
699,-0.00,-0.00,-0.00,0.11,-0.09,9.79,0,0,0
700,0.00,0.00,-0.00,0.11,-0.08,9.76,0,0,0
701,0.00,-0.00,-0.00,0.08,-0.07,9.87,0,0,0
702,0.00,0.00,-0.00,0.08,-0.00,9.83,0,0,0
703,-0.00,0.00,-0.00,0.11,-0.06,9.83,0,0,0
704,-0.00,0.00,-0.00,0.03,-0.08,9.78,0,0,0
705,0.00,0.00,0.00,0.01,-0.06,9.81,0,0,0
706,0.00,0.00,-0.00,0.08,-0.07,9.74,0,0,0
707,0.00,0.00,0.00,0.05,-0.04,9.83,0,0,0
708,0.00,0.00,-0.00,0.03,-0.04,9.79,0,0,0
709,-0.00,0.00,-0.00,0.08,-0.06,9.80,0,0,0
710,0.00,0.00,-0.00,0.06,-0.03,9.79,0,0,0
711,0.00,0.00,-0.00,0.07,-0.02,9.81,0,0,0
712,-0.00,0.00,-0.00,0.04,-0.04,9.81,0,0,0
713,0.00,-0.00,-0.00,0.06,-0.03,9.77,0,0,0
714,0.00,0.00,-0.00,0.07,-0.02,9.81,0,0,0
715,0.00,0.00,-0.00,0.06,-0.03,9.80,0,0,0
716,-0.00,0.00,0.00,0.05,-0.00,9.83,0,0,0
717,0.00,0.00,-0.00,0.04,-0.09,9.82,0,0,0
718,0.00,0.00,-0.00,0.09,0.02,9.76,0,0,0
719,0.00,0.00,-0.00,0.08,-0.02,9.87,0,0,0
720,0.00,0.00,-0.00,0.07,-0.05,9.84,0,0,0
721,0.00,0.00,0.00,0.02,0.02,9.81,0,0,0
722,0.00,0.00,-0.00,0.08,-0.09,9.80,0,0,0
723,-0.00,0.00,-0.00,0.06,-0.01,9.84,0,0,0
724,0.00,-0.00,-0.00,0.07,-0.01,9.89,0,0,0
725,0.00,0.00,-0.00,0.04,-0.04,9.84,0,0,0
726,-0.00,0.00,0.00,0.12,-0.02,9.78,0,0,0
727,0.00,0.00,-0.00,0.05,-0.04,9.76,0,0,0
728,-0.00,0.00,-0.00,-0.00,-0.02,9.85,0,0,0
729,0.00,0.01,-0.00,0.06,0.02,9.83,0,0,0
730,-0.00,-0.00,0.00,0.05,-0.03,9.84,0,0,0
731,0.00,0.00,-0.00,0.01,-0.03,9.78,0,0,0
732,0.00,0.00,-0.00,0.07,-0.03,9.80,0,0,0
733,0.00,0.00,0.00,0.06,-0.08,9.84,0,0,0
734,0.00,0.00,-0.00,0.05,-0.04,9.84,0,0,0
735,-0.00,0.00,-0.00,0.04,-0.06,9.74,0,0,0
736,-0.00,0.00,-0.00,0.03,-0.04,9.83,0,0,0
737,0.00,0.00,-0.00,0.02,-0.05,9.81,0,0,0
738,0.00,-0.00,-0.00,0.01,-0.10,9.85,0,0,0
739,0.00,0.00,-0.00,0.04,-0.06,9.86,0,0,0
740,0.00,0.00,-0.00,0.06,-0.00,9.84,0,0,0
741,0.00,0.00,-0.00,0.01,-0.01,9.80,0,0,0
742,-0.00,0.00,0.00,0.08,-0.00,9.85,0,0,0
743,0.00,-0.00,-0.00,0.05,-0.09,9.84,0,0,0
744,0.00,0.00,-0.00,0.03,-0.03,9.78,0,0,0
745,0.00,0.00,-0.00,0.07,-0.05,9.81,0,0,0
746,0.00,0.00,-0.00,0.03,-0.09,9.80,0,0,0
747,0.00,0.00,-0.00,0.05,-0.02,9.84,0,0,0
748,0.00,0.00,-0.00,0.11,-0.05,9.84,0,0,0
749,0.00,-0.00,0.00,0.01,-0.03,9.83,0,0,0
750,0.00,0.00,-0.00,0.04,-0.03,9.83,0,0,0
751,0.00,0.00,-0.00,0.06,-0.00,9.80,0,0,0
752,-0.06,-0.11,-0.05,0.23,-0.20,9.84,0,0,0
753,-0.02,-0.01,-0.09,0.37,-0.32,9.74,0,0,0
754,0.11,0.16,-0.41,0.45,-0.19,10.03,0,0,0
755,0.16,0.21,-0.39,0.49,-0.26,9.83,0,0,0
756,0.18,0.23,-0.26,0.46,0.06,9.84,0,0,0
757,0.01,0.01,0.02,0.37,-1.63,10.27,0,0,0
758,0.00,0.06,-0.00,-0.01,-0.04,9.74,0,0,0
759,0.14,0.05,-0.03,-0.10,-0.78,10.37,0,0,0
760,0.47,0.15,0.37,0.25,0.16,9.73,0,0,0
761,0.24,0.23,0.22,0.13,-0.01,9.79,0,0,0
762,0.09,0.30,0.21,-0.30,1.01,10.64,0,0,0
763,-0.04,0.22,0.26,-0.90,0.22,10.90,0,0,0
764,-0.07,0.38,0.02,-0.11,0.57,12.50,0,0,0
765,-0.11,0.56,-0.14,0.30,0.96,12.98,0,0,0
766,0.15,0.71,0.11,1.85,1.24,12.39,0,0,0
767,0.26,0.71,0.21,2.63,1.47,11.92,0,0,0
768,0.31,0.70,0.17,3.24,1.81,11.16,0,0,0
769,0.09,0.62,-0.34,3.51,2.23,9.82,0,0,0
770,-0.06,0.49,-0.71,3.46,2.15,9.28,0,0,0
771,0.10,0.10,-0.91,2.69,2.18,8.08,0,0,0
772,0.50,-0.09,-0.61,1.81,2.34,8.66,0,0,0
773,0.58,-0.04,-0.60,1.46,2.24,8.93,0,0,0
774,0.62,0.10,-0.64,1.28,2.36,9.21,0,0,0
775,0.63,0.18,-0.75,1.42,2.19,9.50,0,0,0
776,0.67,0.21,-0.88,1.76,1.76,9.45,0,0,0
777,0.77,0.14,-0.97,2.08,1.48,9.25,0,0,0
778,0.85,0.06,-0.93,2.05,1.25,9.08,0,0,0
779,0.84,0.04,-0.93,2.09,1.26,9.08,0,0,0
780,0.78,0.03,-1.06,1.98,1.16,8.92,0,0,0
781,0.68,0.04,-1.16,1.91,1.05,8.66,0,0,0
782,0.62,0.06,-1.19,1.77,0.85,8.45,0,0,0
783,0.60,0.03,-1.18,1.83,0.61,8.22,0,0,0
784,0.60,0.00,-1.15,1.79,0.42,7.89,0,0,0
785,0.56,-0.07,-1.16,1.77,0.18,7.70,0,0,0
786,0.54,-0.24,-1.16,2.03,0.03,7.21,0,0,0
787,0.49,-0.43,-1.40,1.84,0.22,6.87,0,0,0
788,0.50,-0.51,-1.53,1.66,0.03,6.88,0,0,0
789,0.58,-0.53,-1.48,1.19,0.11,6.73,0,0,0
790,0.63,-0.53,-1.46,1.27,0.42,6.80,0,0,0
791,0.63,-0.49,-1.45,1.75,0.52,6.93,0,0,0
792,0.64,-0.50,-1.39,2.24,0.40,6.79,0,0,0
793,0.54,-1.09,-1.71,2.25,1.27,6.78,0,0,0
794,0.38,-0.98,-1.95,1.06,0.87,6.55,0,0,0
795,0.29,-0.85,-2.02,0.78,0.68,6.13,0,0,0
796,0.18,-0.64,-1.97,0.56,0.34,5.25,0,0,0
797,0.19,-0.95,-1.36,3.96,-1.11,4.12,0,0,0
798,0.01,-1.32,-1.39,3.58,-1.25,5.52,0,0,0
799,-0.36,-1.12,-2.24,1.04,-0.43,8.95,0,0,0
800,-0.47,-1.11,-2.36,0.16,0.42,10.60,0,0,0
801,-0.10,-1.10,-1.77,1.20,-1.18,11.42,0,0,0
802,0.23,-0.94,-0.76,1.02,-2.37,11.94,0,0,0
803,-0.32,-0.46,-1.11,0.48,-3.12,13.23,0,0,0
804,-0.85,-0.00,-1.76,-0.60,-0.57,15.06,0,0,0
805,-1.07,-0.00,-1.89,-0.21,0.34,15.00,0,0,0
806,-0.85,-0.06,-1.46,2.13,0.43,15.46,0,0,0
807,-0.32,-0.35,-0.71,2.48,-0.69,16.21,0,0,0
808,0.14,-0.56,-0.24,1.55,-0.39,17.25,0,0,0
809,0.58,-0.58,-0.19,-0.04,-0.24,19.07,0,0,0
810,0.01,0.29,-0.98,-0.59,-0.23,19.65,0,0,0
811,-0.66,0.64,-1.47,0.19,0.02,18.76,0,0,0
812,-1.00,0.69,-1.77,1.48,1.44,17.93,0,0,0
813,-0.74,0.58,-1.62,0.74,1.74,17.79,0,0,0
814,0.08,0.71,-0.78,-0.24,2.10,17.84,0,0,0
815,0.26,0.80,-0.67,0.40,2.43,17.61,0,0,0
816,0.33,0.89,-1.04,1.51,2.41,16.44,0,0,0
817,0.27,0.84,-1.12,1.77,2.11,16.15,0,0,0
818,0.22,0.78,-1.18,2.07,1.92,15.85,0,0,0
819,0.21,0.79,-1.24,1.50,1.56,15.80,0,0,0
820,0.32,0.99,-1.06,0.75,1.70,15.51,0,0,0
821,0.41,1.32,-1.00,1.06,1.84,14.51,0,0,0
822,0.48,1.40,-0.96,1.76,1.55,13.50,0,0,0
823,0.54,1.35,-0.96,2.61,1.81,12.74,0,0,0
824,0.59,1.01,-1.38,3.58,0.97,10.75,0,0,0
825,1.01,0.68,-1.00,0.33,0.23,10.52,0,0,0
826,1.04,0.79,-0.77,-0.06,0.78,10.39,0,0,0
827,0.97,0.91,-0.74,-0.20,0.94,10.04,0,0,0
828,0.49,1.36,-1.30,0.76,1.06,8.71,0,0,0
829,-0.21,0.63,-2.66,1.93,0.45,5.01,0,0,0
830,0.60,0.55,-1.72,-1.23,-0.42,5.38,0,0,0
831,1.08,0.63,-0.99,-1.70,-0.14,5.54,0,0,0
832,0.55,0.41,-1.32,1.34,0.16,6.09,0,0,0
833,0.54,0.39,-1.73,0.15,0.33,8.17,0,0,0
834,0.76,0.31,-1.51,-0.41,0.86,8.75,0,0,0
835,0.84,0.39,-1.35,-1.06,1.64,9.32,0,0,0
836,0.88,0.42,-1.17,-1.62,1.47,9.46,0,0,0
837,0.97,0.46,-1.08,-1.52,1.19,9.28,0,0,0
838,1.24,0.40,-0.96,0.57,-0.34,7.84,0,0,0
839,1.31,-0.01,-1.16,0.95,0.07,6.94,0,0,0
840,1.24,-0.09,-0.99,0.37,0.19,7.16,0,0,0
841,1.02,-0.21,-0.58,-0.99,0.27,8.20,0,0,0
842,0.39,-0.06,-0.73,-0.88,0.94,7.69,0,0,0
843,0.23,-0.11,-0.68,-0.39,0.81,7.21,0,0,0
844,0.14,-0.16,-0.73,-0.09,0.91,6.93,0,0,0
845,0.05,-0.21,-0.82,-0.35,0.93,7.00,0,0,0
846,-0.01,-0.28,-0.80,-0.78,1.06,7.30,0,0,0
847,0.11,-0.28,-0.54,-1.67,0.75,7.90,0,0,0
848,0.20,-0.33,-0.23,-1.83,0.56,8.12,0,0,0
849,0.14,-0.22,-0.08,-1.96,0.92,8.49,0,0,0
850,-0.05,-0.08,-0.18,-1.79,1.05,8.55,0,0,0
851,-0.25,0.06,-0.28,-2.01,1.34,8.61,0,0,0
852,-0.34,0.16,-0.35,-1.65,1.90,8.66,0,0,0
853,-0.20,0.13,-0.31,-1.11,2.18,8.61,0,0,0
854,0.26,-0.12,0.12,-1.47,1.88,8.54,0,0,0
855,0.10,-0.20,0.13,-1.24,1.86,8.44,0,0,0
856,-0.07,-0.18,-0.00,-1.29,1.89,8.58,0,0,0
857,-0.32,-0.16,-0.21,-1.42,2.25,8.83,0,0,0
858,-0.33,-0.15,-0.22,-1.65,2.60,9.15,0,0,0
859,-0.22,-0.18,-0.17,-1.77,3.03,9.59,0,0,0
860,-0.09,-0.21,-0.06,-1.81,2.93,9.86,0,0,0
861,0.04,-0.24,0.07,-1.77,2.79,10.03,0,0,0
862,0.19,-0.31,0.20,-1.58,2.34,10.15,0,0,0
863,0.21,-0.32,0.22,-1.73,2.39,10.14,0,0,0
864,0.07,-0.26,0.11,-1.69,2.30,9.94,0,0,0
865,-0.20,-0.06,-0.23,-1.51,2.41,9.79,0,0,0
866,-0.19,-0.06,-0.23,-1.40,2.48,9.85,0,0,0
867,-0.05,-0.07,-0.10,-1.58,2.52,9.69,0,0,0
868,0.06,-0.11,0.03,-1.49,2.47,9.57,0,0,0
869,0.12,-0.15,0.08,-1.32,2.18,9.32,0,0,0
870,0.02,-0.14,0.10,-1.37,2.02,9.30,0,0,0
871,-0.14,-0.07,-0.03,-1.43,2.49,9.68,0,0,0
872,0.12,-0.20,0.07,-0.89,2.62,9.47,0,0,0
873,0.03,-0.26,-0.00,-0.66,2.41,9.52,0,0,0
874,-0.04,-0.28,-0.04,-0.72,2.37,9.65,0,0,0
875,-0.12,0.12,-0.01,1.21,3.12,11.02,0,0,0
876,-0.05,0.01,-0.11,-2.92,1.83,10.78,0,0,0
877,0.13,-0.06,-0.14,-0.79,3.20,10.55,0,0,0
878,0.23,0.03,0.11,-0.79,2.41,10.26,0,0,0
879,0.17,-0.02,0.11,-1.44,2.10,10.38,0,0,0
880,0.05,0.04,0.11,-0.59,2.64,9.95,0,0,0
881,-0.02,0.04,-0.07,-1.02,2.74,9.62,0,0,0
882,-0.08,-0.00,-0.24,-0.78,2.96,9.17,0,0,0
883,-0.02,-0.07,-0.21,-0.84,2.91,9.15,0,0,0
